"success","timeout","failed_images","failed_audio","failed_video","trial_type","trial_index","plugin_version","time_elapsed","view_history","rt","stimulus","response","image","image_category","arrow","arrow_position","response_arrow","correct"
"true","false","[]","[]","[]","preload","0","2.1.0","4","","","","","","","","","",""
"","","","","","instructions","1","2.1.0","5169","[{""page_index"":0,""viewing_time"":2046},{""page_index"":1,""viewing_time"":1938},{""page_index"":2,""viewing_time"":1179}]","5163","","","","","","","",""
"","","","","","html-keyboard-response","2","2.1.0","5977","","null","
            <div class=""trial-screen"">
                <div class=""fixation-modern"">+</div>
            </div>
        ","null","","","","","",""
"","","","","","html-keyboard-response","3","2.1.0","6909","","932","
        <div class=""progress-bar"" style=""width: 85.83333333333333%;""></div>
        <div class=""trial-counter"">Trial 103 / 120</div>
        <div class=""trial-screen"">
            <div class=""center-image-container"">
                <img src=""images/high_pos/Fireworks 6.jpg"" class=""center-image"">
            </div>
            <div class=""arrow-subtle"" style=""left: 92%; top: 65%; transform: translate(-50%, -50%);"">
                ↑
            </div>
        </div>
    ","ArrowUp","images/high_pos/Fireworks 6.jpg","high_arousal_positive","↑","right-lower","↑","1"
"","","","","","html-keyboard-response","4","2.1.0","7721","","null","
            <div class=""trial-screen"">
                <div class=""fixation-modern"">+</div>
            </div>
        ","null","","","","","",""
"","","","","","html-keyboard-response","5","2.1.0","8537","","814","
        <div class=""progress-bar"" style=""width: 45%;""></div>
        <div class=""trial-counter"">Trial 54 / 120</div>
        <div class=""trial-screen"">
            <div class=""center-image-container"">
                <img src=""images/high_neg/Fire 9.jpg"" class=""center-image"">
            </div>
            <div class=""arrow-subtle"" style=""left: 8%; top: 55%; transform: translate(-50%, -50%);"">
                ↓
            </div>
        </div>
    ","ArrowDown","images/high_neg/Fire 9.jpg","high_arousal_negative","↓","left-mid-lower","↓","1"
"","","","","","html-keyboard-response","6","2.1.0","9339","","null","
            <div class=""trial-screen"">
                <div class=""fixation-modern"">+</div>
            </div>
        ","null","","","","","",""
"","","","","","html-keyboard-response","7","2.1.0","9969","","629","
        <div class=""progress-bar"" style=""width: 40.833333333333336%;""></div>
        <div class=""trial-counter"">Trial 49 / 120</div>
        <div class=""trial-screen"">
            <div class=""center-image-container"">
                <img src=""images/high_neg/Injury 4.jpg"" class=""center-image"">
            </div>
            <div class=""arrow-subtle"" style=""left: 92%; top: 25%; transform: translate(-50%, -50%);"">
                →
            </div>
        </div>
    ","ArrowRight","images/high_neg/Injury 4.jpg","high_arousal_negative","→","right-upper","→","1"
"","","","","","html-keyboard-response","8","2.1.0","10783","","null","
            <div class=""trial-screen"">
                <div class=""fixation-modern"">+</div>
            </div>
        ","null","","","","","",""
"","","","","","html-keyboard-response","9","2.1.0","11533","","747","
        <div class=""progress-bar"" style=""width: 91.66666666666666%;""></div>
        <div class=""trial-counter"">Trial 110 / 120</div>
        <div class=""trial-screen"">
            <div class=""center-image-container"">
                <img src=""images/high_pos/Cat 5.jpg"" class=""center-image"">
            </div>
            <div class=""arrow-subtle"" style=""left: 8%; top: 85%; transform: translate(-50%, -50%);"">
                →
            </div>
        </div>
    ","ArrowRight","images/high_pos/Cat 5.jpg","high_arousal_positive","→","left-bottom","→","1"
"","","","","","html-keyboard-response","10","2.1.0","12337","","null","
            <div class=""trial-screen"">
                <div class=""fixation-modern"">+</div>
            </div>
        ","null","","","","","",""
"","","","","","html-keyboard-response","11","2.1.0","13395","","1056","
        <div class=""progress-bar"" style=""width: 49.166666666666664%;""></div>
        <div class=""trial-counter"">Trial 59 / 120</div>
        <div class=""trial-screen"">
            <div class=""center-image-container"">
                <img src=""images/high_neg/Fire 11.jpg"" class=""center-image"">
            </div>
            <div class=""arrow-subtle"" style=""left: 92%; top: 25%; transform: translate(-50%, -50%);"">
                →
            </div>
        </div>
    ","ArrowRight","images/high_neg/Fire 11.jpg","high_arousal_negative","→","right-upper","→","1"
"","","","","","html-keyboard-response","12","2.1.0","14202","","null","
            <div class=""trial-screen"">
                <div class=""fixation-modern"">+</div>
            </div>
        ","null","","","","","",""
"","","","","","html-keyboard-response","13","2.1.0","14959","","755","
        <div class=""progress-bar"" style=""width: 12.5%;""></div>
        <div class=""trial-counter"">Trial 15 / 120</div>
        <div class=""trial-screen"">
            <div class=""center-image-container"">
                <img src=""images/neutral/Paperclips 3.jpg"" class=""center-image"">
            </div>
            <div class=""arrow-subtle"" style=""left: 92%; top: 35%; transform: translate(-50%, -50%);"">
                →
            </div>
        </div>
    ","ArrowRight","images/neutral/Paperclips 3.jpg","neutral","→","right-upper-mid","→","1"
"","","","","","html-keyboard-response","14","2.1.0","15770","","null","
            <div class=""trial-screen"">
                <div class=""fixation-modern"">+</div>
            </div>
        ","null","","","","","",""
"","","","","","html-keyboard-response","15","2.1.0","16449","","678","
        <div class=""progress-bar"" style=""width: 33.33333333333333%;""></div>
        <div class=""trial-counter"">Trial 40 / 120</div>
        <div class=""trial-screen"">
            <div class=""center-image-container"">
                <img src=""images/neutral/Office supplies 2.jpg"" class=""center-image"">
            </div>
            <div class=""arrow-subtle"" style=""left: 8%; top: 75%; transform: translate(-50%, -50%);"">
                ↓
            </div>
        </div>
    ","ArrowDown","images/neutral/Office supplies 2.jpg","neutral","↓","left-bottom-upper","↓","1"
"","","","","","html-keyboard-response","16","2.1.0","17257","","null","
            <div class=""trial-screen"">
                <div class=""fixation-modern"">+</div>
            </div>
        ","null","","","","","",""
"","","","","","html-keyboard-response","17","2.1.0","17801","","542","
        <div class=""progress-bar"" style=""width: 20.833333333333336%;""></div>
        <div class=""trial-counter"">Trial 25 / 120</div>
        <div class=""trial-screen"">
            <div class=""center-image-container"">
                <img src=""images/neutral/Wall 2.jpg"" class=""center-image"">
            </div>
            <div class=""arrow-subtle"" style=""left: 8%; top: 65%; transform: translate(-50%, -50%);"">
                →
            </div>
        </div>
    ","ArrowRight","images/neutral/Wall 2.jpg","neutral","→","left-lower","→","1"
"","","","","","html-keyboard-response","18","2.1.0","18607","","null","
            <div class=""trial-screen"">
                <div class=""fixation-modern"">+</div>
            </div>
        ","null","","","","","",""
"","","","","","html-keyboard-response","19","2.1.0","19310","","700","
        <div class=""progress-bar"" style=""width: 8.333333333333332%;""></div>
        <div class=""trial-counter"">Trial 10 / 120</div>
        <div class=""trial-screen"">
            <div class=""center-image-container"">
                <img src=""images/neutral/Wall 1.jpg"" class=""center-image"">
            </div>
            <div class=""arrow-subtle"" style=""left: 92%; top: 35%; transform: translate(-50%, -50%);"">
                ←
            </div>
        </div>
    ","ArrowLeft","images/neutral/Wall 1.jpg","neutral","←","right-upper-mid","←","1"
"","","","","","html-keyboard-response","20","2.1.0","20110","","null","
            <div class=""trial-screen"">
                <div class=""fixation-modern"">+</div>
            </div>
        ","null","","","","","",""
"","","","","","html-keyboard-response","21","2.1.0","20888","","776","
        <div class=""progress-bar"" style=""width: 18.333333333333332%;""></div>
        <div class=""trial-counter"">Trial 22 / 120</div>
        <div class=""trial-screen"">
            <div class=""center-image-container"">
                <img src=""images/neutral/Paper 3.jpg"" class=""center-image"">
            </div>
            <div class=""arrow-subtle"" style=""left: 92%; top: 65%; transform: translate(-50%, -50%);"">
                ↓
            </div>
        </div>
    ","ArrowDown","images/neutral/Paper 3.jpg","neutral","↓","right-lower","↓","1"
"","","","","","html-keyboard-response","22","2.1.0","21690","","null","
            <div class=""trial-screen"">
                <div class=""fixation-modern"">+</div>
            </div>
        ","null","","","","","",""
"","","","","","html-keyboard-response","23","2.1.0","22979","","1287","
        <div class=""progress-bar"" style=""width: 55.00000000000001%;""></div>
        <div class=""trial-counter"">Trial 66 / 120</div>
        <div class=""trial-screen"">
            <div class=""center-image-container"">
                <img src=""images/high_neg/Explosion 5.jpg"" class=""center-image"">
            </div>
            <div class=""arrow-subtle"" style=""left: 8%; top: 65%; transform: translate(-50%, -50%);"">
                ↓
            </div>
        </div>
    ","ArrowDown","images/high_neg/Explosion 5.jpg","high_arousal_negative","↓","left-lower","↓","1"
"","","","","","html-keyboard-response","24","2.1.0","23785","","null","
            <div class=""trial-screen"">
                <div class=""fixation-modern"">+</div>
            </div>
        ","null","","","","","",""
"","","","","","html-keyboard-response","25","2.1.0","25361","","1574","
        <div class=""progress-bar"" style=""width: 79.16666666666666%;""></div>
        <div class=""trial-counter"">Trial 95 / 120</div>
        <div class=""trial-screen"">
            <div class=""center-image-container"">
                <img src=""images/high_pos/Fireworks 6.jpg"" class=""center-image"">
            </div>
            <div class=""arrow-subtle"" style=""left: 92%; top: 35%; transform: translate(-50%, -50%);"">
                ↑
            </div>
        </div>
    ","ArrowUp","images/high_pos/Fireworks 6.jpg","high_arousal_positive","↑","right-upper-mid","↑","1"
"","","","","","html-keyboard-response","26","2.1.0","26174","","null","
            <div class=""trial-screen"">
                <div class=""fixation-modern"">+</div>
            </div>
        ","null","","","","","",""
"","","","","","html-keyboard-response","27","2.1.0","26777","","602","
        <div class=""progress-bar"" style=""width: 27.500000000000004%;""></div>
        <div class=""trial-counter"">Trial 33 / 120</div>
        <div class=""trial-screen"">
            <div class=""center-image-container"">
                <img src=""images/neutral/Wall 2.jpg"" class=""center-image"">
            </div>
            <div class=""arrow-subtle"" style=""left: 92%; top: 45%; transform: translate(-50%, -50%);"">
                →
            </div>
        </div>
    ","ArrowRight","images/neutral/Wall 2.jpg","neutral","→","right-mid","→","1"
"","","","","","html-keyboard-response","28","2.1.0","27585","","null","
            <div class=""trial-screen"">
                <div class=""fixation-modern"">+</div>
            </div>
        ","null","","","","","",""
"","","","","","html-keyboard-response","29","2.1.0","28440","","855","
        <div class=""progress-bar"" style=""width: 5%;""></div>
        <div class=""trial-counter"">Trial 6 / 120</div>
        <div class=""trial-screen"">
            <div class=""center-image-container"">
                <img src=""images/neutral/Paper 3.jpg"" class=""center-image"">
            </div>
            <div class=""arrow-subtle"" style=""left: 8%; top: 55%; transform: translate(-50%, -50%);"">
                ↑
            </div>
        </div>
    ","ArrowUp","images/neutral/Paper 3.jpg","neutral","↑","left-mid-lower","↑","1"
"","","","","","html-keyboard-response","30","2.1.0","29249","","null","
            <div class=""trial-screen"">
                <div class=""fixation-modern"">+</div>
            </div>
        ","null","","","","","",""
"","","","","","html-keyboard-response","31","2.1.0","29874","","625","
        <div class=""progress-bar"" style=""width: 88.33333333333333%;""></div>
        <div class=""trial-counter"">Trial 106 / 120</div>
        <div class=""trial-screen"">
            <div class=""center-image-container"">
                <img src=""images/high_pos/Dog 6.jpg"" class=""center-image"">
            </div>
            <div class=""arrow-subtle"" style=""left: 8%; top: 45%; transform: translate(-50%, -50%);"">
                ←
            </div>
        </div>
    ","ArrowLeft","images/high_pos/Dog 6.jpg","high_arousal_positive","←","left-mid","←","1"
"","","","","","html-keyboard-response","32","2.1.0","30681","","null","
            <div class=""trial-screen"">
                <div class=""fixation-modern"">+</div>
            </div>
        ","null","","","","","",""
"","","","","","html-keyboard-response","33","2.1.0","31887","","1205","
        <div class=""progress-bar"" style=""width: 44.166666666666664%;""></div>
        <div class=""trial-counter"">Trial 53 / 120</div>
        <div class=""trial-screen"">
            <div class=""center-image-container"">
                <img src=""images/high_neg/Dummy 1.jpg"" class=""center-image"">
            </div>
            <div class=""arrow-subtle"" style=""left: 92%; top: 85%; transform: translate(-50%, -50%);"">
                ↑
            </div>
        </div>
    ","ArrowUp","images/high_neg/Dummy 1.jpg","high_arousal_negative","↑","right-bottom","↑","1"
"","","","","","html-keyboard-response","34","2.1.0","32702","","null","
            <div class=""trial-screen"">
                <div class=""fixation-modern"">+</div>
            </div>
        ","null","","","","","",""
"","","","","","html-keyboard-response","35","2.1.0","33894","","1190","
        <div class=""progress-bar"" style=""width: 20%;""></div>
        <div class=""trial-counter"">Trial 24 / 120</div>
        <div class=""trial-screen"">
            <div class=""center-image-container"">
                <img src=""images/neutral/Office supplies 2.jpg"" class=""center-image"">
            </div>
            <div class=""arrow-subtle"" style=""left: 8%; top: 15%; transform: translate(-50%, -50%);"">
                ←
            </div>
        </div>
    ","ArrowLeft","images/neutral/Office supplies 2.jpg","neutral","←","left-top","←","1"
"","","","","","html-keyboard-response","36","2.1.0","34704","","null","
            <div class=""trial-screen"">
                <div class=""fixation-modern"">+</div>
            </div>
        ","null","","","","","",""
"","","","","","html-keyboard-response","37","2.1.0","35298","","592","
        <div class=""progress-bar"" style=""width: 99.16666666666667%;""></div>
        <div class=""trial-counter"">Trial 119 / 120</div>
        <div class=""trial-screen"">
            <div class=""center-image-container"">
                <img src=""images/high_pos/Fireworks 6.jpg"" class=""center-image"">
            </div>
            <div class=""arrow-subtle"" style=""left: 8%; top: 15%; transform: translate(-50%, -50%);"">
                ↑
            </div>
        </div>
    ","ArrowUp","images/high_pos/Fireworks 6.jpg","high_arousal_positive","↑","left-top","↑","1"
"","","","","","html-keyboard-response","38","2.1.0","36098","","null","
            <div class=""trial-screen"">
                <div class=""fixation-modern"">+</div>
            </div>
        ","null","","","","","",""
"","","","","","html-keyboard-response","39","2.1.0","37091","","992","
        <div class=""progress-bar"" style=""width: 56.666666666666664%;""></div>
        <div class=""trial-counter"">Trial 68 / 120</div>
        <div class=""trial-screen"">
            <div class=""center-image-container"">
                <img src=""images/high_neg/Fire 5.jpg"" class=""center-image"">
            </div>
            <div class=""arrow-subtle"" style=""left: 92%; top: 75%; transform: translate(-50%, -50%);"">
                ↑
            </div>
        </div>
    ","ArrowUp","images/high_neg/Fire 5.jpg","high_arousal_negative","↑","right-bottom-upper","↑","1"
"","","","","","html-keyboard-response","40","2.1.0","37899","","null","
            <div class=""trial-screen"">
                <div class=""fixation-modern"">+</div>
            </div>
        ","null","","","","","",""
"","","","","","html-keyboard-response","41","2.1.0","38749","","849","
        <div class=""progress-bar"" style=""width: 40%;""></div>
        <div class=""trial-counter"">Trial 48 / 120</div>
        <div class=""trial-screen"">
            <div class=""center-image-container"">
                <img src=""images/high_neg/War 8.jpg"" class=""center-image"">
            </div>
            <div class=""arrow-subtle"" style=""left: 92%; top: 15%; transform: translate(-50%, -50%);"">
                ←
            </div>
        </div>
    ","ArrowLeft","images/high_neg/War 8.jpg","high_arousal_negative","←","right-top","←","1"
"","","","","","html-keyboard-response","42","2.1.0","39559","","null","
            <div class=""trial-screen"">
                <div class=""fixation-modern"">+</div>
            </div>
        ","null","","","","","",""
"","","","","","html-keyboard-response","43","2.1.0","40947","","1387","
        <div class=""progress-bar"" style=""width: 59.166666666666664%;""></div>
        <div class=""trial-counter"">Trial 71 / 120</div>
        <div class=""trial-screen"">
            <div class=""center-image-container"">
                <img src=""images/high_neg/Miserable pose 3.jpg"" class=""center-image"">
            </div>
            <div class=""arrow-subtle"" style=""left: 8%; top: 15%; transform: translate(-50%, -50%);"">
                ←
            </div>
        </div>
    ","ArrowLeft","images/high_neg/Miserable pose 3.jpg","high_arousal_negative","←","left-top","←","1"
"","","","","","html-keyboard-response","44","2.1.0","41749","","null","
            <div class=""trial-screen"">
                <div class=""fixation-modern"">+</div>
            </div>
        ","null","","","","","",""
"","","","","","html-keyboard-response","45","2.1.0","42436","","686","
        <div class=""progress-bar"" style=""width: 98.33333333333333%;""></div>
        <div class=""trial-counter"">Trial 118 / 120</div>
        <div class=""trial-screen"">
            <div class=""center-image-container"">
                <img src=""images/high_pos/Cat 5.jpg"" class=""center-image"">
            </div>
            <div class=""arrow-subtle"" style=""left: 8%; top: 75%; transform: translate(-50%, -50%);"">
                ←
            </div>
        </div>
    ","ArrowLeft","images/high_pos/Cat 5.jpg","high_arousal_positive","←","left-bottom-upper","←","1"
"","","","","","html-keyboard-response","46","2.1.0","43239","","null","
            <div class=""trial-screen"">
                <div class=""fixation-modern"">+</div>
            </div>
        ","null","","","","","",""
"","","","","","html-keyboard-response","47","2.1.0","44054","","815","
        <div class=""progress-bar"" style=""width: 23.333333333333332%;""></div>
        <div class=""trial-counter"">Trial 28 / 120</div>
        <div class=""trial-screen"">
            <div class=""center-image-container"">
                <img src=""images/neutral/Bricks 1.jpg"" class=""center-image"">
            </div>
            <div class=""arrow-subtle"" style=""left: 8%; top: 35%; transform: translate(-50%, -50%);"">
                ↓
            </div>
        </div>
    ","ArrowDown","images/neutral/Bricks 1.jpg","neutral","↓","left-upper-mid","↓","1"
"","","","","","html-keyboard-response","48","2.1.0","44867","","null","
            <div class=""trial-screen"">
                <div class=""fixation-modern"">+</div>
            </div>
        ","null","","","","","",""
"","","","","","html-keyboard-response","49","2.1.0","45449","","581","
        <div class=""progress-bar"" style=""width: 39.166666666666664%;""></div>
        <div class=""trial-counter"">Trial 47 / 120</div>
        <div class=""trial-screen"">
            <div class=""center-image-container"">
                <img src=""images/high_neg/Miserable pose 3.jpg"" class=""center-image"">
            </div>
            <div class=""arrow-subtle"" style=""left: 8%; top: 15%; transform: translate(-50%, -50%);"">
                ←
            </div>
        </div>
    ","ArrowLeft","images/high_neg/Miserable pose 3.jpg","high_arousal_negative","←","left-top","←","1"
"","","","","","html-keyboard-response","50","2.1.0","46260","","null","
            <div class=""trial-screen"">
                <div class=""fixation-modern"">+</div>
            </div>
        ","null","","","","","",""
"","","","","","html-keyboard-response","51","2.1.0","46807","","546","
        <div class=""progress-bar"" style=""width: 75%;""></div>
        <div class=""trial-counter"">Trial 90 / 120</div>
        <div class=""trial-screen"">
            <div class=""center-image-container"">
                <img src=""images/high_pos/Dog 6.jpg"" class=""center-image"">
            </div>
            <div class=""arrow-subtle"" style=""left: 92%; top: 25%; transform: translate(-50%, -50%);"">
                ↑
            </div>
        </div>
    ","ArrowUp","images/high_pos/Dog 6.jpg","high_arousal_positive","↑","right-upper","↑","1"
"","","","","","html-keyboard-response","52","2.1.0","47612","","null","
            <div class=""trial-screen"">
                <div class=""fixation-modern"">+</div>
            </div>
        ","null","","","","","",""
"","","","","","html-keyboard-response","53","2.1.0","48736","","1124","
        <div class=""progress-bar"" style=""width: 55.833333333333336%;""></div>
        <div class=""trial-counter"">Trial 67 / 120</div>
        <div class=""trial-screen"">
            <div class=""center-image-container"">
                <img src=""images/high_neg/Fire 11.jpg"" class=""center-image"">
            </div>
            <div class=""arrow-subtle"" style=""left: 92%; top: 25%; transform: translate(-50%, -50%);"">
                ↓
            </div>
        </div>
    ","ArrowDown","images/high_neg/Fire 11.jpg","high_arousal_negative","↓","right-upper","↓","1"
"","","","","","html-keyboard-response","54","2.1.0","49544","","null","
            <div class=""trial-screen"">
                <div class=""fixation-modern"">+</div>
            </div>
        ","null","","","","","",""
"","","","","","html-keyboard-response","55","2.1.0","50354","","809","
        <div class=""progress-bar"" style=""width: 66.66666666666666%;""></div>
        <div class=""trial-counter"">Trial 80 / 120</div>
        <div class=""trial-screen"">
            <div class=""center-image-container"">
                <img src=""images/high_neg/War 8.jpg"" class=""center-image"">
            </div>
            <div class=""arrow-subtle"" style=""left: 92%; top: 65%; transform: translate(-50%, -50%);"">
                →
            </div>
        </div>
    ","ArrowRight","images/high_neg/War 8.jpg","high_arousal_negative","→","right-lower","→","1"
"","","","","","html-keyboard-response","56","2.1.0","51159","","null","
            <div class=""trial-screen"">
                <div class=""fixation-modern"">+</div>
            </div>
        ","null","","","","","",""
"","","","","","html-keyboard-response","57","2.1.0","51799","","639","
        <div class=""progress-bar"" style=""width: 19.166666666666668%;""></div>
        <div class=""trial-counter"">Trial 23 / 120</div>
        <div class=""trial-screen"">
            <div class=""center-image-container"">
                <img src=""images/neutral/Paperclips 3.jpg"" class=""center-image"">
            </div>
            <div class=""arrow-subtle"" style=""left: 8%; top: 55%; transform: translate(-50%, -50%);"">
                ↓
            </div>
        </div>
    ","ArrowDown","images/neutral/Paperclips 3.jpg","neutral","↓","left-mid-lower","↓","1"
"","","","","","html-keyboard-response","58","2.1.0","52605","","null","
            <div class=""trial-screen"">
                <div class=""fixation-modern"">+</div>
            </div>
        ","null","","","","","",""
"","","","","","html-keyboard-response","59","2.1.0","53345","","738","
        <div class=""progress-bar"" style=""width: 32.5%;""></div>
        <div class=""trial-counter"">Trial 39 / 120</div>
        <div class=""trial-screen"">
            <div class=""center-image-container"">
                <img src=""images/neutral/Paperclips 3.jpg"" class=""center-image"">
            </div>
            <div class=""arrow-subtle"" style=""left: 92%; top: 45%; transform: translate(-50%, -50%);"">
                →
            </div>
        </div>
    ","ArrowRight","images/neutral/Paperclips 3.jpg","neutral","→","right-mid","→","1"
"","","","","","html-keyboard-response","60","2.1.0","54149","","null","
            <div class=""trial-screen"">
                <div class=""fixation-modern"">+</div>
            </div>
        ","null","","","","","",""
"","","","","","html-keyboard-response","61","2.1.0","54873","","724","
        <div class=""progress-bar"" style=""width: 53.333333333333336%;""></div>
        <div class=""trial-counter"">Trial 64 / 120</div>
        <div class=""trial-screen"">
            <div class=""center-image-container"">
                <img src=""images/high_neg/War 8.jpg"" class=""center-image"">
            </div>
            <div class=""arrow-subtle"" style=""left: 92%; top: 35%; transform: translate(-50%, -50%);"">
                ←
            </div>
        </div>
    ","ArrowLeft","images/high_neg/War 8.jpg","high_arousal_negative","←","right-upper-mid","←","1"
"","","","","","html-keyboard-response","62","2.1.0","55686","","null","
            <div class=""trial-screen"">
                <div class=""fixation-modern"">+</div>
            </div>
        ","null","","","","","",""
"","","","","","html-keyboard-response","63","2.1.0","56351","","664","
        <div class=""progress-bar"" style=""width: 30%;""></div>
        <div class=""trial-counter"">Trial 36 / 120</div>
        <div class=""trial-screen"">
            <div class=""center-image-container"">
                <img src=""images/neutral/Bricks 1.jpg"" class=""center-image"">
            </div>
            <div class=""arrow-subtle"" style=""left: 8%; top: 25%; transform: translate(-50%, -50%);"">
                ↓
            </div>
        </div>
    ","ArrowDown","images/neutral/Bricks 1.jpg","neutral","↓","left-upper","↓","1"
"","","","","","html-keyboard-response","64","2.1.0","57165","","null","
            <div class=""trial-screen"">
                <div class=""fixation-modern"">+</div>
            </div>
        ","null","","","","","",""
"","","","","","html-keyboard-response","65","2.1.0","58003","","838","
        <div class=""progress-bar"" style=""width: 17.5%;""></div>
        <div class=""trial-counter"">Trial 21 / 120</div>
        <div class=""trial-screen"">
            <div class=""center-image-container"">
                <img src=""images/neutral/Cotton swabs 3.jpg"" class=""center-image"">
            </div>
            <div class=""arrow-subtle"" style=""left: 8%; top: 45%; transform: translate(-50%, -50%);"">
                ↓
            </div>
        </div>
    ","ArrowDown","images/neutral/Cotton swabs 3.jpg","neutral","↓","left-mid","↓","1"
"","","","","","html-keyboard-response","66","2.1.0","58808","","null","
            <div class=""trial-screen"">
                <div class=""fixation-modern"">+</div>
            </div>
        ","null","","","","","",""
"","","","","","html-keyboard-response","67","2.1.0","59891","","1082","
        <div class=""progress-bar"" style=""width: 41.66666666666667%;""></div>
        <div class=""trial-counter"">Trial 50 / 120</div>
        <div class=""trial-screen"">
            <div class=""center-image-container"">
                <img src=""images/high_neg/Explosion 5.jpg"" class=""center-image"">
            </div>
            <div class=""arrow-subtle"" style=""left: 92%; top: 85%; transform: translate(-50%, -50%);"">
                ↑
            </div>
        </div>
    ","ArrowUp","images/high_neg/Explosion 5.jpg","high_arousal_negative","↑","right-bottom","↑","1"
"","","","","","html-keyboard-response","68","2.1.0","60703","","null","
            <div class=""trial-screen"">
                <div class=""fixation-modern"">+</div>
            </div>
        ","null","","","","","",""
"","","","","","html-keyboard-response","69","2.1.0","61472","","768","
        <div class=""progress-bar"" style=""width: 10.833333333333334%;""></div>
        <div class=""trial-counter"">Trial 13 / 120</div>
        <div class=""trial-screen"">
            <div class=""center-image-container"">
                <img src=""images/neutral/Cotton swabs 3.jpg"" class=""center-image"">
            </div>
            <div class=""arrow-subtle"" style=""left: 92%; top: 35%; transform: translate(-50%, -50%);"">
                ←
            </div>
        </div>
    ","ArrowLeft","images/neutral/Cotton swabs 3.jpg","neutral","←","right-upper-mid","←","1"
"","","","","","html-keyboard-response","70","2.1.0","62272","","null","
            <div class=""trial-screen"">
                <div class=""fixation-modern"">+</div>
            </div>
        ","null","","","","","",""
"","","","","","html-keyboard-response","71","2.1.0","63201","","929","
        <div class=""progress-bar"" style=""width: 97.5%;""></div>
        <div class=""trial-counter"">Trial 117 / 120</div>
        <div class=""trial-screen"">
            <div class=""center-image-container"">
                <img src=""images/high_pos/Dog 18.jpg"" class=""center-image"">
            </div>
            <div class=""arrow-subtle"" style=""left: 92%; top: 85%; transform: translate(-50%, -50%);"">
                →
            </div>
        </div>
    ","ArrowRight","images/high_pos/Dog 18.jpg","high_arousal_positive","→","right-bottom","→","1"
"","","","","","html-keyboard-response","72","2.1.0","64014","","null","
            <div class=""trial-screen"">
                <div class=""fixation-modern"">+</div>
            </div>
        ","null","","","","","",""
"","","","","","html-keyboard-response","73","2.1.0","65393","","1377","
        <div class=""progress-bar"" style=""width: 64.16666666666667%;""></div>
        <div class=""trial-counter"">Trial 77 / 120</div>
        <div class=""trial-screen"">
            <div class=""center-image-container"">
                <img src=""images/high_neg/Dummy 1.jpg"" class=""center-image"">
            </div>
            <div class=""arrow-subtle"" style=""left: 92%; top: 25%; transform: translate(-50%, -50%);"">
                ↑
            </div>
        </div>
    ","ArrowUp","images/high_neg/Dummy 1.jpg","high_arousal_negative","↑","right-upper","↑","1"
"","","","","","html-keyboard-response","74","2.1.0","66196","","null","
            <div class=""trial-screen"">
                <div class=""fixation-modern"">+</div>
            </div>
        ","null","","","","","",""
"","","","","","html-keyboard-response","75","2.1.0","66866","","670","
        <div class=""progress-bar"" style=""width: 6.666666666666667%;""></div>
        <div class=""trial-counter"">Trial 8 / 120</div>
        <div class=""trial-screen"">
            <div class=""center-image-container"">
                <img src=""images/neutral/Office supplies 2.jpg"" class=""center-image"">
            </div>
            <div class=""arrow-subtle"" style=""left: 8%; top: 15%; transform: translate(-50%, -50%);"">
                ↑
            </div>
        </div>
    ","ArrowUp","images/neutral/Office supplies 2.jpg","neutral","↑","left-top","↑","1"
"","","","","","html-keyboard-response","76","2.1.0","67667","","null","
            <div class=""trial-screen"">
                <div class=""fixation-modern"">+</div>
            </div>
        ","null","","","","","",""
"","","","","","html-keyboard-response","77","2.1.0","69020","","1354","
        <div class=""progress-bar"" style=""width: 37.5%;""></div>
        <div class=""trial-counter"">Trial 45 / 120</div>
        <div class=""trial-screen"">
            <div class=""center-image-container"">
                <img src=""images/high_neg/Dummy 1.jpg"" class=""center-image"">
            </div>
            <div class=""arrow-subtle"" style=""left: 8%; top: 85%; transform: translate(-50%, -50%);"">
                →
            </div>
        </div>
    ","ArrowRight","images/high_neg/Dummy 1.jpg","high_arousal_negative","→","left-bottom","→","1"
"","","","","","html-keyboard-response","78","2.1.0","69829","","null","
            <div class=""trial-screen"">
                <div class=""fixation-modern"">+</div>
            </div>
        ","null","","","","","",""
"","","","","","html-keyboard-response","79","2.1.0","70507","","676","
        <div class=""progress-bar"" style=""width: 16.666666666666664%;""></div>
        <div class=""trial-counter"">Trial 20 / 120</div>
        <div class=""trial-screen"">
            <div class=""center-image-container"">
                <img src=""images/neutral/Bricks 1.jpg"" class=""center-image"">
            </div>
            <div class=""arrow-subtle"" style=""left: 8%; top: 25%; transform: translate(-50%, -50%);"">
                ↑
            </div>
        </div>
    ","ArrowUp","images/neutral/Bricks 1.jpg","neutral","↑","left-upper","↑","1"
"","","","","","html-keyboard-response","80","2.1.0","71320","","null","
            <div class=""trial-screen"">
                <div class=""fixation-modern"">+</div>
            </div>
        ","null","","","","","",""
"","","","","","html-keyboard-response","81","2.1.0","72283","","962","
        <div class=""progress-bar"" style=""width: 72.5%;""></div>
        <div class=""trial-counter"">Trial 87 / 120</div>
        <div class=""trial-screen"">
            <div class=""center-image-container"">
                <img src=""images/high_pos/Fireworks 6.jpg"" class=""center-image"">
            </div>
            <div class=""arrow-subtle"" style=""left: 92%; top: 65%; transform: translate(-50%, -50%);"">
                ↓
            </div>
        </div>
    ","ArrowDown","images/high_pos/Fireworks 6.jpg","high_arousal_positive","↓","right-lower","↓","1"
"","","","","","html-keyboard-response","82","2.1.0","73091","","null","
            <div class=""trial-screen"">
                <div class=""fixation-modern"">+</div>
            </div>
        ","null","","","","","",""
"","","","","","html-keyboard-response","83","2.1.0","74246","","1155","
        <div class=""progress-bar"" style=""width: 95.83333333333334%;""></div>
        <div class=""trial-counter"">Trial 115 / 120</div>
        <div class=""trial-screen"">
            <div class=""center-image-container"">
                <img src=""images/high_pos/Fireworks 2.jpg"" class=""center-image"">
            </div>
            <div class=""arrow-subtle"" style=""left: 92%; top: 15%; transform: translate(-50%, -50%);"">
                ↑
            </div>
        </div>
    ","ArrowUp","images/high_pos/Fireworks 2.jpg","high_arousal_positive","↑","right-top","↑","1"
"","","","","","html-keyboard-response","84","2.1.0","75052","","null","
            <div class=""trial-screen"">
                <div class=""fixation-modern"">+</div>
            </div>
        ","null","","","","","",""
"","","","","","html-keyboard-response","85","2.1.0","75978","","925","
        <div class=""progress-bar"" style=""width: 50%;""></div>
        <div class=""trial-counter"">Trial 60 / 120</div>
        <div class=""trial-screen"">
            <div class=""center-image-container"">
                <img src=""images/high_neg/Fire 5.jpg"" class=""center-image"">
            </div>
            <div class=""arrow-subtle"" style=""left: 8%; top: 15%; transform: translate(-50%, -50%);"">
                ←
            </div>
        </div>
    ","ArrowLeft","images/high_neg/Fire 5.jpg","high_arousal_negative","←","left-top","←","1"
"","","","","","html-keyboard-response","86","2.1.0","76789","","null","
            <div class=""trial-screen"">
                <div class=""fixation-modern"">+</div>
            </div>
        ","null","","","","","",""
"","","","","","html-keyboard-response","87","2.1.0","77475","","685","
        <div class=""progress-bar"" style=""width: 24.166666666666668%;""></div>
        <div class=""trial-counter"">Trial 29 / 120</div>
        <div class=""trial-screen"">
            <div class=""center-image-container"">
                <img src=""images/neutral/Cotton swabs 3.jpg"" class=""center-image"">
            </div>
            <div class=""arrow-subtle"" style=""left: 92%; top: 45%; transform: translate(-50%, -50%);"">
                →
            </div>
        </div>
    ","ArrowRight","images/neutral/Cotton swabs 3.jpg","neutral","→","right-mid","→","1"
"","","","","","html-keyboard-response","88","2.1.0","78278","","null","
            <div class=""trial-screen"">
                <div class=""fixation-modern"">+</div>
            </div>
        ","null","","","","","",""
"","","","","","html-keyboard-response","89","2.1.0","78911","","631","
        <div class=""progress-bar"" style=""width: 13.333333333333334%;""></div>
        <div class=""trial-counter"">Trial 16 / 120</div>
        <div class=""trial-screen"">
            <div class=""center-image-container"">
                <img src=""images/neutral/Office supplies 2.jpg"" class=""center-image"">
            </div>
            <div class=""arrow-subtle"" style=""left: 92%; top: 35%; transform: translate(-50%, -50%);"">
                →
            </div>
        </div>
    ","ArrowRight","images/neutral/Office supplies 2.jpg","neutral","→","right-upper-mid","→","1"
"","","","","","html-keyboard-response","90","2.1.0","79723","","null","
            <div class=""trial-screen"">
                <div class=""fixation-modern"">+</div>
            </div>
        ","null","","","","","",""
"","","","","","html-keyboard-response","91","2.1.0","80989","","1266","
        <div class=""progress-bar"" style=""width: 42.5%;""></div>
        <div class=""trial-counter"">Trial 51 / 120</div>
        <div class=""trial-screen"">
            <div class=""center-image-container"">
                <img src=""images/high_neg/Fire 11.jpg"" class=""center-image"">
            </div>
            <div class=""arrow-subtle"" style=""left: 92%; top: 65%; transform: translate(-50%, -50%);"">
                ↑
            </div>
        </div>
    ","ArrowUp","images/high_neg/Fire 11.jpg","high_arousal_negative","↑","right-lower","↑","1"
"","","","","","html-keyboard-response","92","2.1.0","81802","","null","
            <div class=""trial-screen"">
                <div class=""fixation-modern"">+</div>
            </div>
        ","null","","","","","",""
"","","","","","html-keyboard-response","93","2.1.0","82892","","1088","
        <div class=""progress-bar"" style=""width: 87.5%;""></div>
        <div class=""trial-counter"">Trial 105 / 120</div>
        <div class=""trial-screen"">
            <div class=""center-image-container"">
                <img src=""images/high_pos/Nude couple 5.jpg"" class=""center-image"">
            </div>
            <div class=""arrow-subtle"" style=""left: 8%; top: 45%; transform: translate(-50%, -50%);"">
                ←
            </div>
        </div>
    ","ArrowLeft","images/high_pos/Nude couple 5.jpg","high_arousal_positive","←","left-mid","←","1"
"","","","","","html-keyboard-response","94","2.1.0","83700","","null","
            <div class=""trial-screen"">
                <div class=""fixation-modern"">+</div>
            </div>
        ","null","","","","","",""
"","","","","","html-keyboard-response","95","2.1.0","84421","","720","
        <div class=""progress-bar"" style=""width: 81.66666666666667%;""></div>
        <div class=""trial-counter"">Trial 98 / 120</div>
        <div class=""trial-screen"">
            <div class=""center-image-container"">
                <img src=""images/high_pos/Dog 6.jpg"" class=""center-image"">
            </div>
            <div class=""arrow-subtle"" style=""left: 8%; top: 25%; transform: translate(-50%, -50%);"">
                ↓
            </div>
        </div>
    ","ArrowDown","images/high_pos/Dog 6.jpg","high_arousal_positive","↓","left-upper","↓","1"
"","","","","","html-keyboard-response","96","2.1.0","85237","","null","
            <div class=""trial-screen"">
                <div class=""fixation-modern"">+</div>
            </div>
        ","null","","","","","",""
"","","","","","html-keyboard-response","97","2.1.0","87083","","1846","
        <div class=""progress-bar"" style=""width: 65%;""></div>
        <div class=""trial-counter"">Trial 78 / 120</div>
        <div class=""trial-screen"">
            <div class=""center-image-container"">
                <img src=""images/high_neg/Fire 9.jpg"" class=""center-image"">
            </div>
            <div class=""arrow-subtle"" style=""left: 92%; top: 15%; transform: translate(-50%, -50%);"">
                →
            </div>
        </div>
    ","ArrowRight","images/high_neg/Fire 9.jpg","high_arousal_negative","→","right-top","→","1"
"","","","","","html-keyboard-response","98","2.1.0","87896","","null","
            <div class=""trial-screen"">
                <div class=""fixation-modern"">+</div>
            </div>
        ","null","","","","","",""
"","","","","","html-keyboard-response","99","2.1.0","88490","","594","
        <div class=""progress-bar"" style=""width: 3.3333333333333335%;""></div>
        <div class=""trial-counter"">Trial 4 / 120</div>
        <div class=""trial-screen"">
            <div class=""center-image-container"">
                <img src=""images/neutral/Bricks 1.jpg"" class=""center-image"">
            </div>
            <div class=""arrow-subtle"" style=""left: 8%; top: 85%; transform: translate(-50%, -50%);"">
                →
            </div>
        </div>
    ","ArrowRight","images/neutral/Bricks 1.jpg","neutral","→","left-bottom","→","1"
"","","","","","html-keyboard-response","100","2.1.0","89327","","null","
            <div class=""trial-screen"">
                <div class=""fixation-modern"">+</div>
            </div>
        ","null","","","","","",""
"","","","","","html-keyboard-response","101","2.1.0","90725","","1397","
        <div class=""progress-bar"" style=""width: 74.16666666666667%;""></div>
        <div class=""trial-counter"">Trial 89 / 120</div>
        <div class=""trial-screen"">
            <div class=""center-image-container"">
                <img src=""images/high_pos/Nude couple 5.jpg"" class=""center-image"">
            </div>
            <div class=""arrow-subtle"" style=""left: 92%; top: 25%; transform: translate(-50%, -50%);"">
                ↑
            </div>
        </div>
    ","ArrowUp","images/high_pos/Nude couple 5.jpg","high_arousal_positive","↑","right-upper","↑","1"
"","","","","","html-keyboard-response","102","2.1.0","91537","","null","
            <div class=""trial-screen"">
                <div class=""fixation-modern"">+</div>
            </div>
        ","null","","","","","",""
"","","","","","html-keyboard-response","103","2.1.0","92087","","549","
        <div class=""progress-bar"" style=""width: 25%;""></div>
        <div class=""trial-counter"">Trial 30 / 120</div>
        <div class=""trial-screen"">
            <div class=""center-image-container"">
                <img src=""images/neutral/Paper 3.jpg"" class=""center-image"">
            </div>
            <div class=""arrow-subtle"" style=""left: 92%; top: 45%; transform: translate(-50%, -50%);"">
                ↑
            </div>
        </div>
    ","ArrowUp","images/neutral/Paper 3.jpg","neutral","↑","right-mid","↑","1"
"","","","","","html-keyboard-response","104","2.1.0","92890","","null","
            <div class=""trial-screen"">
                <div class=""fixation-modern"">+</div>
            </div>
        ","null","","","","","",""
"","","","","","html-keyboard-response","105","2.1.0","94013","","1123","
        <div class=""progress-bar"" style=""width: 86.66666666666667%;""></div>
        <div class=""trial-counter"">Trial 104 / 120</div>
        <div class=""trial-screen"">
            <div class=""center-image-container"">
                <img src=""images/high_pos/Beach 1.jpg"" class=""center-image"">
            </div>
            <div class=""arrow-subtle"" style=""left: 8%; top: 25%; transform: translate(-50%, -50%);"">
                ↓
            </div>
        </div>
    ","ArrowDown","images/high_pos/Beach 1.jpg","high_arousal_positive","↓","left-upper","↓","1"
"","","","","","html-keyboard-response","106","2.1.0","94819","","null","
            <div class=""trial-screen"">
                <div class=""fixation-modern"">+</div>
            </div>
        ","null","","","","","",""
"","","","","","html-keyboard-response","107","2.1.0","95409","","589","
        <div class=""progress-bar"" style=""width: 94.16666666666667%;""></div>
        <div class=""trial-counter"">Trial 113 / 120</div>
        <div class=""trial-screen"">
            <div class=""center-image-container"">
                <img src=""images/high_pos/Nude couple 5.jpg"" class=""center-image"">
            </div>
            <div class=""arrow-subtle"" style=""left: 92%; top: 45%; transform: translate(-50%, -50%);"">
                ←
            </div>
        </div>
    ","ArrowLeft","images/high_pos/Nude couple 5.jpg","high_arousal_positive","←","right-mid","←","1"
"","","","","","html-keyboard-response","108","2.1.0","96213","","null","
            <div class=""trial-screen"">
                <div class=""fixation-modern"">+</div>
            </div>
        ","null","","","","","",""
"","","","","","html-keyboard-response","109","2.1.0","96839","","625","
        <div class=""progress-bar"" style=""width: 89.16666666666667%;""></div>
        <div class=""trial-counter"">Trial 107 / 120</div>
        <div class=""trial-screen"">
            <div class=""center-image-container"">
                <img src=""images/high_pos/Fireworks 2.jpg"" class=""center-image"">
            </div>
            <div class=""arrow-subtle"" style=""left: 92%; top: 75%; transform: translate(-50%, -50%);"">
                ↑
            </div>
        </div>
    ","ArrowUp","images/high_pos/Fireworks 2.jpg","high_arousal_positive","↑","right-bottom-upper","↑","1"
"","","","","","html-keyboard-response","110","2.1.0","97639","","null","
            <div class=""trial-screen"">
                <div class=""fixation-modern"">+</div>
            </div>
        ","null","","","","","",""
"","","","","","html-keyboard-response","111","2.1.0","98776","","1136","
        <div class=""progress-bar"" style=""width: 48.333333333333336%;""></div>
        <div class=""trial-counter"">Trial 58 / 120</div>
        <div class=""trial-screen"">
            <div class=""center-image-container"">
                <img src=""images/high_neg/Explosion 5.jpg"" class=""center-image"">
            </div>
            <div class=""arrow-subtle"" style=""left: 92%; top: 15%; transform: translate(-50%, -50%);"">
                →
            </div>
        </div>
    ","ArrowRight","images/high_neg/Explosion 5.jpg","high_arousal_negative","→","right-top","→","1"
"","","","","","html-keyboard-response","112","2.1.0","99581","","null","
            <div class=""trial-screen"">
                <div class=""fixation-modern"">+</div>
            </div>
        ","null","","","","","",""
"","","","","","html-keyboard-response","113","2.1.0","100302","","721","
        <div class=""progress-bar"" style=""width: 69.16666666666667%;""></div>
        <div class=""trial-counter"">Trial 83 / 120</div>
        <div class=""trial-screen"">
            <div class=""center-image-container"">
                <img src=""images/high_pos/Fireworks 2.jpg"" class=""center-image"">
            </div>
            <div class=""arrow-subtle"" style=""left: 92%; top: 45%; transform: translate(-50%, -50%);"">
                →
            </div>
        </div>
    ","ArrowRight","images/high_pos/Fireworks 2.jpg","high_arousal_positive","→","right-mid","→","1"
"","","","","","html-keyboard-response","114","2.1.0","101104","","null","
            <div class=""trial-screen"">
                <div class=""fixation-modern"">+</div>
            </div>
        ","null","","","","","",""
"","","","","","html-keyboard-response","115","2.1.0","102263","","1156","
        <div class=""progress-bar"" style=""width: 7.5%;""></div>
        <div class=""trial-counter"">Trial 9 / 120</div>
        <div class=""trial-screen"">
            <div class=""center-image-container"">
                <img src=""images/neutral/Wall 2.jpg"" class=""center-image"">
            </div>
            <div class=""arrow-subtle"" style=""left: 8%; top: 55%; transform: translate(-50%, -50%);"">
                →
            </div>
        </div>
    ","ArrowRight","images/neutral/Wall 2.jpg","neutral","→","left-mid-lower","→","1"
"","","","","","html-keyboard-response","116","2.1.0","103113","","null","
            <div class=""trial-screen"">
                <div class=""fixation-modern"">+</div>
            </div>
        ","null","","","","","",""
"","","","","","html-keyboard-response","117","2.1.0","104641","","1527","
        <div class=""progress-bar"" style=""width: 77.5%;""></div>
        <div class=""trial-counter"">Trial 93 / 120</div>
        <div class=""trial-screen"">
            <div class=""center-image-container"">
                <img src=""images/high_pos/Dog 18.jpg"" class=""center-image"">
            </div>
            <div class=""arrow-subtle"" style=""left: 92%; top: 15%; transform: translate(-50%, -50%);"">
                ←
            </div>
        </div>
    ","ArrowLeft","images/high_pos/Dog 18.jpg","high_arousal_positive","←","right-top","←","1"
"","","","","","html-keyboard-response","118","2.1.0","105447","","null","
            <div class=""trial-screen"">
                <div class=""fixation-modern"">+</div>
            </div>
        ","null","","","","","",""
"","","","","","html-keyboard-response","119","2.1.0","106137","","689","
        <div class=""progress-bar"" style=""width: 11.666666666666666%;""></div>
        <div class=""trial-counter"">Trial 14 / 120</div>
        <div class=""trial-screen"">
            <div class=""center-image-container"">
                <img src=""images/neutral/Paper 3.jpg"" class=""center-image"">
            </div>
            <div class=""arrow-subtle"" style=""left: 92%; top: 55%; transform: translate(-50%, -50%);"">
                ↓
            </div>
        </div>
    ","ArrowDown","images/neutral/Paper 3.jpg","neutral","↓","right-mid-lower","↓","1"
"","","","","","html-keyboard-response","120","2.1.0","106939","","null","
            <div class=""trial-screen"">
                <div class=""fixation-modern"">+</div>
            </div>
        ","null","","","","","",""
"","","","","","html-keyboard-response","121","2.1.0","108230","","1290","
        <div class=""progress-bar"" style=""width: 84.16666666666667%;""></div>
        <div class=""trial-counter"">Trial 101 / 120</div>
        <div class=""trial-screen"">
            <div class=""center-image-container"">
                <img src=""images/high_pos/Dog 18.jpg"" class=""center-image"">
            </div>
            <div class=""arrow-subtle"" style=""left: 8%; top: 35%; transform: translate(-50%, -50%);"">
                ←
            </div>
        </div>
    ","ArrowLeft","images/high_pos/Dog 18.jpg","high_arousal_positive","←","left-upper-mid","←","1"
"","","","","","html-keyboard-response","122","2.1.0","109032","","null","
            <div class=""trial-screen"">
                <div class=""fixation-modern"">+</div>
            </div>
        ","null","","","","","",""
"","","","","","html-keyboard-response","123","2.1.0","109808","","775","
        <div class=""progress-bar"" style=""width: 80%;""></div>
        <div class=""trial-counter"">Trial 96 / 120</div>
        <div class=""trial-screen"">
            <div class=""center-image-container"">
                <img src=""images/high_pos/Beach 1.jpg"" class=""center-image"">
            </div>
            <div class=""arrow-subtle"" style=""left: 8%; top: 55%; transform: translate(-50%, -50%);"">
                ←
            </div>
        </div>
    ","ArrowLeft","images/high_pos/Beach 1.jpg","high_arousal_positive","←","left-mid-lower","←","1"
"","","","","","html-keyboard-response","124","2.1.0","110620","","null","
            <div class=""trial-screen"">
                <div class=""fixation-modern"">+</div>
            </div>
        ","null","","","","","",""
"","","","","","html-keyboard-response","125","2.1.0","111280","","660","
        <div class=""progress-bar"" style=""width: 21.666666666666668%;""></div>
        <div class=""trial-counter"">Trial 26 / 120</div>
        <div class=""trial-screen"">
            <div class=""center-image-container"">
                <img src=""images/neutral/Wall 1.jpg"" class=""center-image"">
            </div>
            <div class=""arrow-subtle"" style=""left: 92%; top: 75%; transform: translate(-50%, -50%);"">
                ↓
            </div>
        </div>
    ","ArrowDown","images/neutral/Wall 1.jpg","neutral","↓","right-bottom-upper","↓","1"
"","","","","","html-keyboard-response","126","2.1.0","112088","","null","
            <div class=""trial-screen"">
                <div class=""fixation-modern"">+</div>
            </div>
        ","null","","","","","",""
"","","","","","html-keyboard-response","127","2.1.0","112682","","593","
        <div class=""progress-bar"" style=""width: 0.8333333333333334%;""></div>
        <div class=""trial-counter"">Trial 1 / 120</div>
        <div class=""trial-screen"">
            <div class=""center-image-container"">
                <img src=""images/neutral/Wall 2.jpg"" class=""center-image"">
            </div>
            <div class=""arrow-subtle"" style=""left: 8%; top: 35%; transform: translate(-50%, -50%);"">
                ←
            </div>
        </div>
    ","ArrowLeft","images/neutral/Wall 2.jpg","neutral","←","left-upper-mid","←","1"
"","","","","","html-keyboard-response","128","2.1.0","113486","","null","
            <div class=""trial-screen"">
                <div class=""fixation-modern"">+</div>
            </div>
        ","null","","","","","",""
"","","","","","html-keyboard-response","129","2.1.0","114564","","1077","
        <div class=""progress-bar"" style=""width: 35%;""></div>
        <div class=""trial-counter"">Trial 42 / 120</div>
        <div class=""trial-screen"">
            <div class=""center-image-container"">
                <img src=""images/high_neg/Explosion 5.jpg"" class=""center-image"">
            </div>
            <div class=""arrow-subtle"" style=""left: 92%; top: 45%; transform: translate(-50%, -50%);"">
                ↓
            </div>
        </div>
    ","ArrowDown","images/high_neg/Explosion 5.jpg","high_arousal_negative","↓","right-mid","↓","1"
"","","","","","html-keyboard-response","130","2.1.0","115369","","null","
            <div class=""trial-screen"">
                <div class=""fixation-modern"">+</div>
            </div>
        ","null","","","","","",""
"","","","","","html-keyboard-response","131","2.1.0","116651","","1281","
        <div class=""progress-bar"" style=""width: 50.83333333333333%;""></div>
        <div class=""trial-counter"">Trial 61 / 120</div>
        <div class=""trial-screen"">
            <div class=""center-image-container"">
                <img src=""images/high_neg/Dummy 1.jpg"" class=""center-image"">
            </div>
            <div class=""arrow-subtle"" style=""left: 8%; top: 85%; transform: translate(-50%, -50%);"">
                →
            </div>
        </div>
    ","ArrowRight","images/high_neg/Dummy 1.jpg","high_arousal_negative","→","left-bottom","→","1"
"","","","","","html-keyboard-response","132","2.1.0","117451","","null","
            <div class=""trial-screen"">
                <div class=""fixation-modern"">+</div>
            </div>
        ","null","","","","","",""
"","","","","","html-keyboard-response","133","2.1.0","119030","","1577","
        <div class=""progress-bar"" style=""width: 90.83333333333333%;""></div>
        <div class=""trial-counter"">Trial 109 / 120</div>
        <div class=""trial-screen"">
            <div class=""center-image-container"">
                <img src=""images/high_pos/Dog 18.jpg"" class=""center-image"">
            </div>
            <div class=""arrow-subtle"" style=""left: 8%; top: 15%; transform: translate(-50%, -50%);"">
                ←
            </div>
        </div>
    ","ArrowLeft","images/high_pos/Dog 18.jpg","high_arousal_positive","←","left-top","←","1"
"","","","","","html-keyboard-response","134","2.1.0","119835","","null","
            <div class=""trial-screen"">
                <div class=""fixation-modern"">+</div>
            </div>
        ","null","","","","","",""
"","","","","","html-keyboard-response","135","2.1.0","120853","","1017","
        <div class=""progress-bar"" style=""width: 15%;""></div>
        <div class=""trial-counter"">Trial 18 / 120</div>
        <div class=""trial-screen"">
            <div class=""center-image-container"">
                <img src=""images/neutral/Wall 1.jpg"" class=""center-image"">
            </div>
            <div class=""arrow-subtle"" style=""left: 92%; top: 35%; transform: translate(-50%, -50%);"">
                ↓
            </div>
        </div>
    ","ArrowDown","images/neutral/Wall 1.jpg","neutral","↓","right-upper-mid","↓","1"
"","","","","","html-keyboard-response","136","2.1.0","121665","","null","
            <div class=""trial-screen"">
                <div class=""fixation-modern"">+</div>
            </div>
        ","null","","","","","",""
"","","","","","html-keyboard-response","137","2.1.0","123188","","1522","
        <div class=""progress-bar"" style=""width: 60.83333333333333%;""></div>
        <div class=""trial-counter"">Trial 73 / 120</div>
        <div class=""trial-screen"">
            <div class=""center-image-container"">
                <img src=""images/high_neg/Injury 4.jpg"" class=""center-image"">
            </div>
            <div class=""arrow-subtle"" style=""left: 92%; top: 25%; transform: translate(-50%, -50%);"">
                ←
            </div>
        </div>
    ","ArrowLeft","images/high_neg/Injury 4.jpg","high_arousal_negative","←","right-upper","←","1"
"","","","","","html-keyboard-response","138","2.1.0","123994","","null","
            <div class=""trial-screen"">
                <div class=""fixation-modern"">+</div>
            </div>
        ","null","","","","","",""
"","","","","","html-keyboard-response","139","2.1.0","124676","","681","
        <div class=""progress-bar"" style=""width: 30.833333333333336%;""></div>
        <div class=""trial-counter"">Trial 37 / 120</div>
        <div class=""trial-screen"">
            <div class=""center-image-container"">
                <img src=""images/neutral/Cotton swabs 3.jpg"" class=""center-image"">
            </div>
            <div class=""arrow-subtle"" style=""left: 92%; top: 35%; transform: translate(-50%, -50%);"">
                ↑
            </div>
        </div>
    ","ArrowUp","images/neutral/Cotton swabs 3.jpg","neutral","↑","right-upper-mid","↑","1"
"","","","","","html-keyboard-response","140","2.1.0","125485","","null","
            <div class=""trial-screen"">
                <div class=""fixation-modern"">+</div>
            </div>
        ","null","","","","","",""
"","","","","","html-keyboard-response","141","2.1.0","126297","","812","
        <div class=""progress-bar"" style=""width: 75.83333333333333%;""></div>
        <div class=""trial-counter"">Trial 91 / 120</div>
        <div class=""trial-screen"">
            <div class=""center-image-container"">
                <img src=""images/high_pos/Fireworks 2.jpg"" class=""center-image"">
            </div>
            <div class=""arrow-subtle"" style=""left: 92%; top: 85%; transform: translate(-50%, -50%);"">
                ↓
            </div>
        </div>
    ","ArrowDown","images/high_pos/Fireworks 2.jpg","high_arousal_positive","↓","right-bottom","↓","1"
"","","","","","html-keyboard-response","142","2.1.0","127101","","null","
            <div class=""trial-screen"">
                <div class=""fixation-modern"">+</div>
            </div>
        ","null","","","","","",""
"","","","","","html-keyboard-response","143","2.1.0","127747","","645","
        <div class=""progress-bar"" style=""width: 5.833333333333333%;""></div>
        <div class=""trial-counter"">Trial 7 / 120</div>
        <div class=""trial-screen"">
            <div class=""center-image-container"">
                <img src=""images/neutral/Paperclips 3.jpg"" class=""center-image"">
            </div>
            <div class=""arrow-subtle"" style=""left: 8%; top: 85%; transform: translate(-50%, -50%);"">
                →
            </div>
        </div>
    ","ArrowLeft","images/neutral/Paperclips 3.jpg","neutral","→","left-bottom","←","0"
"","","","","","html-keyboard-response","144","2.1.0","128548","","null","
            <div class=""trial-screen"">
                <div class=""fixation-modern"">+</div>
            </div>
        ","null","","","","","",""
"","","","","","html-keyboard-response","145","2.1.0","129581","","1032","
        <div class=""progress-bar"" style=""width: 92.5%;""></div>
        <div class=""trial-counter"">Trial 111 / 120</div>
        <div class=""trial-screen"">
            <div class=""center-image-container"">
                <img src=""images/high_pos/Fireworks 6.jpg"" class=""center-image"">
            </div>
            <div class=""arrow-subtle"" style=""left: 92%; top: 65%; transform: translate(-50%, -50%);"">
                ←
            </div>
        </div>
    ","ArrowLeft","images/high_pos/Fireworks 6.jpg","high_arousal_positive","←","right-lower","←","1"
"","","","","","html-keyboard-response","146","2.1.0","130396","","null","
            <div class=""trial-screen"">
                <div class=""fixation-modern"">+</div>
            </div>
        ","null","","","","","",""
"","","","","","html-keyboard-response","147","2.1.0","131317","","919","
        <div class=""progress-bar"" style=""width: 85%;""></div>
        <div class=""trial-counter"">Trial 102 / 120</div>
        <div class=""trial-screen"">
            <div class=""center-image-container"">
                <img src=""images/high_pos/Cat 5.jpg"" class=""center-image"">
            </div>
            <div class=""arrow-subtle"" style=""left: 92%; top: 15%; transform: translate(-50%, -50%);"">
                ↑
            </div>
        </div>
    ","ArrowUp","images/high_pos/Cat 5.jpg","high_arousal_positive","↑","right-top","↑","1"
"","","","","","html-keyboard-response","148","2.1.0","132117","","null","
            <div class=""trial-screen"">
                <div class=""fixation-modern"">+</div>
            </div>
        ","null","","","","","",""
"","","","","","html-keyboard-response","149","2.1.0","133162","","1044","
        <div class=""progress-bar"" style=""width: 96.66666666666667%;""></div>
        <div class=""trial-counter"">Trial 116 / 120</div>
        <div class=""trial-screen"">
            <div class=""center-image-container"">
                <img src=""images/high_pos/Rainbow 2.jpg"" class=""center-image"">
            </div>
            <div class=""arrow-subtle"" style=""left: 92%; top: 25%; transform: translate(-50%, -50%);"">
                ↓
            </div>
        </div>
    ","ArrowDown","images/high_pos/Rainbow 2.jpg","high_arousal_positive","↓","right-upper","↓","1"
"","","","","","html-keyboard-response","150","2.1.0","133968","","null","
            <div class=""trial-screen"">
                <div class=""fixation-modern"">+</div>
            </div>
        ","null","","","","","",""
"","","","","","html-keyboard-response","151","2.1.0","134632","","662","
        <div class=""progress-bar"" style=""width: 26.666666666666668%;""></div>
        <div class=""trial-counter"">Trial 32 / 120</div>
        <div class=""trial-screen"">
            <div class=""center-image-container"">
                <img src=""images/neutral/Office supplies 2.jpg"" class=""center-image"">
            </div>
            <div class=""arrow-subtle"" style=""left: 92%; top: 35%; transform: translate(-50%, -50%);"">
                →
            </div>
        </div>
    ","ArrowRight","images/neutral/Office supplies 2.jpg","neutral","→","right-upper-mid","→","1"
"","","","","","html-keyboard-response","152","2.1.0","135496","","null","
            <div class=""trial-screen"">
                <div class=""fixation-modern"">+</div>
            </div>
        ","null","","","","","",""
"","","","","","html-keyboard-response","153","2.1.0","136214","","717","
        <div class=""progress-bar"" style=""width: 29.166666666666668%;""></div>
        <div class=""trial-counter"">Trial 35 / 120</div>
        <div class=""trial-screen"">
            <div class=""center-image-container"">
                <img src=""images/neutral/Wall 3.jpg"" class=""center-image"">
            </div>
            <div class=""arrow-subtle"" style=""left: 92%; top: 75%; transform: translate(-50%, -50%);"">
                ↑
            </div>
        </div>
    ","ArrowUp","images/neutral/Wall 3.jpg","neutral","↑","right-bottom-upper","↑","1"
"","","","","","html-keyboard-response","154","2.1.0","137026","","null","
            <div class=""trial-screen"">
                <div class=""fixation-modern"">+</div>
            </div>
        ","null","","","","","",""
"","","","","","html-keyboard-response","155","2.1.0","138151","","1125","
        <div class=""progress-bar"" style=""width: 52.5%;""></div>
        <div class=""trial-counter"">Trial 63 / 120</div>
        <div class=""trial-screen"">
            <div class=""center-image-container"">
                <img src=""images/high_neg/Miserable pose 3.jpg"" class=""center-image"">
            </div>
            <div class=""arrow-subtle"" style=""left: 92%; top: 45%; transform: translate(-50%, -50%);"">
                ←
            </div>
        </div>
    ","ArrowLeft","images/high_neg/Miserable pose 3.jpg","high_arousal_negative","←","right-mid","←","1"
"","","","","","html-keyboard-response","156","2.1.0","138960","","null","
            <div class=""trial-screen"">
                <div class=""fixation-modern"">+</div>
            </div>
        ","null","","","","","",""
"","","","","","html-keyboard-response","157","2.1.0","139687","","727","
        <div class=""progress-bar"" style=""width: 22.5%;""></div>
        <div class=""trial-counter"">Trial 27 / 120</div>
        <div class=""trial-screen"">
            <div class=""center-image-container"">
                <img src=""images/neutral/Wall 3.jpg"" class=""center-image"">
            </div>
            <div class=""arrow-subtle"" style=""left: 92%; top: 85%; transform: translate(-50%, -50%);"">
                →
            </div>
        </div>
    ","ArrowRight","images/neutral/Wall 3.jpg","neutral","→","right-bottom","→","1"
"","","","","","html-keyboard-response","158","2.1.0","140502","","null","
            <div class=""trial-screen"">
                <div class=""fixation-modern"">+</div>
            </div>
        ","null","","","","","",""
"","","","","","html-keyboard-response","159","2.1.0","141457","","953","
        <div class=""progress-bar"" style=""width: 70.83333333333334%;""></div>
        <div class=""trial-counter"">Trial 85 / 120</div>
        <div class=""trial-screen"">
            <div class=""center-image-container"">
                <img src=""images/high_pos/Dog 18.jpg"" class=""center-image"">
            </div>
            <div class=""arrow-subtle"" style=""left: 8%; top: 45%; transform: translate(-50%, -50%);"">
                ←
            </div>
        </div>
    ","ArrowLeft","images/high_pos/Dog 18.jpg","high_arousal_positive","←","left-mid","←","1"
"","","","","","html-keyboard-response","160","2.1.0","142260","","null","
            <div class=""trial-screen"">
                <div class=""fixation-modern"">+</div>
            </div>
        ","null","","","","","",""
"","","","","","html-keyboard-response","161","2.1.0","143429","","1167","
        <div class=""progress-bar"" style=""width: 9.166666666666666%;""></div>
        <div class=""trial-counter"">Trial 11 / 120</div>
        <div class=""trial-screen"">
            <div class=""center-image-container"">
                <img src=""images/neutral/Wall 3.jpg"" class=""center-image"">
            </div>
            <div class=""arrow-subtle"" style=""left: 8%; top: 65%; transform: translate(-50%, -50%);"">
                →
            </div>
        </div>
    ","ArrowRight","images/neutral/Wall 3.jpg","neutral","→","left-lower","→","1"
"","","","","","html-keyboard-response","162","2.1.0","144242","","null","
            <div class=""trial-screen"">
                <div class=""fixation-modern"">+</div>
            </div>
        ","null","","","","","",""
"","","","","","html-keyboard-response","163","2.1.0","145191","","947","
        <div class=""progress-bar"" style=""width: 10%;""></div>
        <div class=""trial-counter"">Trial 12 / 120</div>
        <div class=""trial-screen"">
            <div class=""center-image-container"">
                <img src=""images/neutral/Bricks 1.jpg"" class=""center-image"">
            </div>
            <div class=""arrow-subtle"" style=""left: 92%; top: 85%; transform: translate(-50%, -50%);"">
                ↑
            </div>
        </div>
    ","ArrowUp","images/neutral/Bricks 1.jpg","neutral","↑","right-bottom","↑","1"
"","","","","","html-keyboard-response","164","2.1.0","146006","","null","
            <div class=""trial-screen"">
                <div class=""fixation-modern"">+</div>
            </div>
        ","null","","","","","",""
"","","","","","html-keyboard-response","165","2.1.0","146517","","511","
        <div class=""progress-bar"" style=""width: 43.333333333333336%;""></div>
        <div class=""trial-counter"">Trial 52 / 120</div>
        <div class=""trial-screen"">
            <div class=""center-image-container"">
                <img src=""images/high_neg/Fire 5.jpg"" class=""center-image"">
            </div>
            <div class=""arrow-subtle"" style=""left: 92%; top: 55%; transform: translate(-50%, -50%);"">
                →
            </div>
        </div>
    ","ArrowRight","images/high_neg/Fire 5.jpg","high_arousal_negative","→","right-mid-lower","→","1"
"","","","","","html-keyboard-response","166","2.1.0","147333","","null","
            <div class=""trial-screen"">
                <div class=""fixation-modern"">+</div>
            </div>
        ","null","","","","","",""
"","","","","","html-keyboard-response","167","2.1.0","148480","","1147","
        <div class=""progress-bar"" style=""width: 100%;""></div>
        <div class=""trial-counter"">Trial 120 / 120</div>
        <div class=""trial-screen"">
            <div class=""center-image-container"">
                <img src=""images/high_pos/Beach 1.jpg"" class=""center-image"">
            </div>
            <div class=""arrow-subtle"" style=""left: 92%; top: 15%; transform: translate(-50%, -50%);"">
                →
            </div>
        </div>
    ","ArrowRight","images/high_pos/Beach 1.jpg","high_arousal_positive","→","right-top","→","1"
"","","","","","html-keyboard-response","168","2.1.0","149281","","null","
            <div class=""trial-screen"">
                <div class=""fixation-modern"">+</div>
            </div>
        ","null","","","","","",""
"","","","","","html-keyboard-response","169","2.1.0","150043","","762","
        <div class=""progress-bar"" style=""width: 78.33333333333333%;""></div>
        <div class=""trial-counter"">Trial 94 / 120</div>
        <div class=""trial-screen"">
            <div class=""center-image-container"">
                <img src=""images/high_pos/Cat 5.jpg"" class=""center-image"">
            </div>
            <div class=""arrow-subtle"" style=""left: 92%; top: 85%; transform: translate(-50%, -50%);"">
                ↓
            </div>
        </div>
    ","ArrowDown","images/high_pos/Cat 5.jpg","high_arousal_positive","↓","right-bottom","↓","1"
"","","","","","html-keyboard-response","170","2.1.0","150854","","null","
            <div class=""trial-screen"">
                <div class=""fixation-modern"">+</div>
            </div>
        ","null","","","","","",""
"","","","","","html-keyboard-response","171","2.1.0","151783","","929","
        <div class=""progress-bar"" style=""width: 95%;""></div>
        <div class=""trial-counter"">Trial 114 / 120</div>
        <div class=""trial-screen"">
            <div class=""center-image-container"">
                <img src=""images/high_pos/Dog 6.jpg"" class=""center-image"">
            </div>
            <div class=""arrow-subtle"" style=""left: 92%; top: 65%; transform: translate(-50%, -50%);"">
                →
            </div>
        </div>
    ","ArrowRight","images/high_pos/Dog 6.jpg","high_arousal_positive","→","right-lower","→","1"
"","","","","","html-keyboard-response","172","2.1.0","152593","","null","
            <div class=""trial-screen"">
                <div class=""fixation-modern"">+</div>
            </div>
        ","null","","","","","",""
"","","","","","html-keyboard-response","173","2.1.0","153194","","600","
        <div class=""progress-bar"" style=""width: 76.66666666666667%;""></div>
        <div class=""trial-counter"">Trial 92 / 120</div>
        <div class=""trial-screen"">
            <div class=""center-image-container"">
                <img src=""images/high_pos/Rainbow 2.jpg"" class=""center-image"">
            </div>
            <div class=""arrow-subtle"" style=""left: 92%; top: 35%; transform: translate(-50%, -50%);"">
                →
            </div>
        </div>
    ","ArrowRight","images/high_pos/Rainbow 2.jpg","high_arousal_positive","→","right-upper-mid","→","1"
"","","","","","html-keyboard-response","174","2.1.0","153995","","null","
            <div class=""trial-screen"">
                <div class=""fixation-modern"">+</div>
            </div>
        ","null","","","","","",""
"","","","","","html-keyboard-response","175","2.1.0","154981","","984","
        <div class=""progress-bar"" style=""width: 38.333333333333336%;""></div>
        <div class=""trial-counter"">Trial 46 / 120</div>
        <div class=""trial-screen"">
            <div class=""center-image-container"">
                <img src=""images/high_neg/Fire 9.jpg"" class=""center-image"">
            </div>
            <div class=""arrow-subtle"" style=""left: 8%; top: 25%; transform: translate(-50%, -50%);"">
                ←
            </div>
        </div>
    ","ArrowLeft","images/high_neg/Fire 9.jpg","high_arousal_negative","←","left-upper","←","1"
"","","","","","html-keyboard-response","176","2.1.0","155789","","null","
            <div class=""trial-screen"">
                <div class=""fixation-modern"">+</div>
            </div>
        ","null","","","","","",""
"","","","","","html-keyboard-response","177","2.1.0","156490","","700","
        <div class=""progress-bar"" style=""width: 73.33333333333333%;""></div>
        <div class=""trial-counter"">Trial 88 / 120</div>
        <div class=""trial-screen"">
            <div class=""center-image-container"">
                <img src=""images/high_pos/Beach 1.jpg"" class=""center-image"">
            </div>
            <div class=""arrow-subtle"" style=""left: 92%; top: 85%; transform: translate(-50%, -50%);"">
                ↑
            </div>
        </div>
    ","ArrowUp","images/high_pos/Beach 1.jpg","high_arousal_positive","↑","right-bottom","↑","1"
"","","","","","html-keyboard-response","178","2.1.0","157298","","null","
            <div class=""trial-screen"">
                <div class=""fixation-modern"">+</div>
            </div>
        ","null","","","","","",""
"","","","","","html-keyboard-response","179","2.1.0","157878","","579","
        <div class=""progress-bar"" style=""width: 28.333333333333332%;""></div>
        <div class=""trial-counter"">Trial 34 / 120</div>
        <div class=""trial-screen"">
            <div class=""center-image-container"">
                <img src=""images/neutral/Wall 1.jpg"" class=""center-image"">
            </div>
            <div class=""arrow-subtle"" style=""left: 92%; top: 35%; transform: translate(-50%, -50%);"">
                →
            </div>
        </div>
    ","ArrowRight","images/neutral/Wall 1.jpg","neutral","→","right-upper-mid","→","1"
"","","","","","html-keyboard-response","180","2.1.0","158681","","null","
            <div class=""trial-screen"">
                <div class=""fixation-modern"">+</div>
            </div>
        ","null","","","","","",""
"","","","","","html-keyboard-response","181","2.1.0","159644","","962","
        <div class=""progress-bar"" style=""width: 34.166666666666664%;""></div>
        <div class=""trial-counter"">Trial 41 / 120</div>
        <div class=""trial-screen"">
            <div class=""center-image-container"">
                <img src=""images/high_neg/Injury 4.jpg"" class=""center-image"">
            </div>
            <div class=""arrow-subtle"" style=""left: 92%; top: 35%; transform: translate(-50%, -50%);"">
                ←
            </div>
        </div>
    ","ArrowLeft","images/high_neg/Injury 4.jpg","high_arousal_negative","←","right-upper-mid","←","1"
"","","","","","html-keyboard-response","182","2.1.0","160455","","null","
            <div class=""trial-screen"">
                <div class=""fixation-modern"">+</div>
            </div>
        ","null","","","","","",""
"","","","","","html-keyboard-response","183","2.1.0","161168","","713","
        <div class=""progress-bar"" style=""width: 58.333333333333336%;""></div>
        <div class=""trial-counter"">Trial 70 / 120</div>
        <div class=""trial-screen"">
            <div class=""center-image-container"">
                <img src=""images/high_neg/Fire 9.jpg"" class=""center-image"">
            </div>
            <div class=""arrow-subtle"" style=""left: 92%; top: 45%; transform: translate(-50%, -50%);"">
                ←
            </div>
        </div>
    ","ArrowLeft","images/high_neg/Fire 9.jpg","high_arousal_negative","←","right-mid","←","1"
"","","","","","html-keyboard-response","184","2.1.0","161978","","null","
            <div class=""trial-screen"">
                <div class=""fixation-modern"">+</div>
            </div>
        ","null","","","","","",""
"","","","","","html-keyboard-response","185","2.1.0","163246","","1268","
        <div class=""progress-bar"" style=""width: 71.66666666666667%;""></div>
        <div class=""trial-counter"">Trial 86 / 120</div>
        <div class=""trial-screen"">
            <div class=""center-image-container"">
                <img src=""images/high_pos/Cat 5.jpg"" class=""center-image"">
            </div>
            <div class=""arrow-subtle"" style=""left: 8%; top: 25%; transform: translate(-50%, -50%);"">
                ↓
            </div>
        </div>
    ","ArrowDown","images/high_pos/Cat 5.jpg","high_arousal_positive","↓","left-upper","↓","1"
"","","","","","html-keyboard-response","186","2.1.0","164049","","null","
            <div class=""trial-screen"">
                <div class=""fixation-modern"">+</div>
            </div>
        ","null","","","","","",""
"","","","","","html-keyboard-response","187","2.1.0","164985","","936","
        <div class=""progress-bar"" style=""width: 25.833333333333336%;""></div>
        <div class=""trial-counter"">Trial 31 / 120</div>
        <div class=""trial-screen"">
            <div class=""center-image-container"">
                <img src=""images/neutral/Paperclips 3.jpg"" class=""center-image"">
            </div>
            <div class=""arrow-subtle"" style=""left: 92%; top: 55%; transform: translate(-50%, -50%);"">
                ↓
            </div>
        </div>
    ","ArrowDown","images/neutral/Paperclips 3.jpg","neutral","↓","right-mid-lower","↓","1"
"","","","","","html-keyboard-response","188","2.1.0","165807","","null","
            <div class=""trial-screen"">
                <div class=""fixation-modern"">+</div>
            </div>
        ","null","","","","","",""
"","","","","","html-keyboard-response","189","2.1.0","166488","","681","
        <div class=""progress-bar"" style=""width: 4.166666666666666%;""></div>
        <div class=""trial-counter"">Trial 5 / 120</div>
        <div class=""trial-screen"">
            <div class=""center-image-container"">
                <img src=""images/neutral/Cotton swabs 3.jpg"" class=""center-image"">
            </div>
            <div class=""arrow-subtle"" style=""left: 8%; top: 75%; transform: translate(-50%, -50%);"">
                ↓
            </div>
        </div>
    ","ArrowDown","images/neutral/Cotton swabs 3.jpg","neutral","↓","left-bottom-upper","↓","1"
"","","","","","html-keyboard-response","190","2.1.0","167299","","null","
            <div class=""trial-screen"">
                <div class=""fixation-modern"">+</div>
            </div>
        ","null","","","","","",""
"","","","","","html-keyboard-response","191","2.1.0","168152","","852","
        <div class=""progress-bar"" style=""width: 36.666666666666664%;""></div>
        <div class=""trial-counter"">Trial 44 / 120</div>
        <div class=""trial-screen"">
            <div class=""center-image-container"">
                <img src=""images/high_neg/Fire 5.jpg"" class=""center-image"">
            </div>
            <div class=""arrow-subtle"" style=""left: 92%; top: 55%; transform: translate(-50%, -50%);"">
                →
            </div>
        </div>
    ","ArrowRight","images/high_neg/Fire 5.jpg","high_arousal_negative","→","right-mid-lower","→","1"
"","","","","","html-keyboard-response","192","2.1.0","168966","","null","
            <div class=""trial-screen"">
                <div class=""fixation-modern"">+</div>
            </div>
        ","null","","","","","",""
"","","","","","html-keyboard-response","193","2.1.0","169599","","632","
        <div class=""progress-bar"" style=""width: 2.5%;""></div>
        <div class=""trial-counter"">Trial 3 / 120</div>
        <div class=""trial-screen"">
            <div class=""center-image-container"">
                <img src=""images/neutral/Wall 3.jpg"" class=""center-image"">
            </div>
            <div class=""arrow-subtle"" style=""left: 92%; top: 65%; transform: translate(-50%, -50%);"">
                →
            </div>
        </div>
    ","ArrowDown","images/neutral/Wall 3.jpg","neutral","→","right-lower","↓","0"
"","","","","","html-keyboard-response","194","2.1.0","170413","","null","
            <div class=""trial-screen"">
                <div class=""fixation-modern"">+</div>
            </div>
        ","null","","","","","",""
"","","","","","html-keyboard-response","195","2.1.0","171447","","1034","
        <div class=""progress-bar"" style=""width: 80.83333333333333%;""></div>
        <div class=""trial-counter"">Trial 97 / 120</div>
        <div class=""trial-screen"">
            <div class=""center-image-container"">
                <img src=""images/high_pos/Nude couple 5.jpg"" class=""center-image"">
            </div>
            <div class=""arrow-subtle"" style=""left: 92%; top: 65%; transform: translate(-50%, -50%);"">
                →
            </div>
        </div>
    ","ArrowRight","images/high_pos/Nude couple 5.jpg","high_arousal_positive","→","right-lower","→","1"
"","","","","","html-keyboard-response","196","2.1.0","172263","","null","
            <div class=""trial-screen"">
                <div class=""fixation-modern"">+</div>
            </div>
        ","null","","","","","",""
"","","","","","html-keyboard-response","197","2.1.0","172961","","696","
        <div class=""progress-bar"" style=""width: 62.5%;""></div>
        <div class=""trial-counter"">Trial 75 / 120</div>
        <div class=""trial-screen"">
            <div class=""center-image-container"">
                <img src=""images/high_neg/Fire 11.jpg"" class=""center-image"">
            </div>
            <div class=""arrow-subtle"" style=""left: 8%; top: 35%; transform: translate(-50%, -50%);"">
                →
            </div>
        </div>
    ","ArrowRight","images/high_neg/Fire 11.jpg","high_arousal_negative","→","left-upper-mid","→","1"
"","","","","","html-keyboard-response","198","2.1.0","173774","","null","
            <div class=""trial-screen"">
                <div class=""fixation-modern"">+</div>
            </div>
        ","null","","","","","",""
"","","","","","html-keyboard-response","199","2.1.0","174435","","661","
        <div class=""progress-bar"" style=""width: 83.33333333333334%;""></div>
        <div class=""trial-counter"">Trial 100 / 120</div>
        <div class=""trial-screen"">
            <div class=""center-image-container"">
                <img src=""images/high_pos/Rainbow 2.jpg"" class=""center-image"">
            </div>
            <div class=""arrow-subtle"" style=""left: 8%; top: 85%; transform: translate(-50%, -50%);"">
                ↓
            </div>
        </div>
    ","ArrowDown","images/high_pos/Rainbow 2.jpg","high_arousal_positive","↓","left-bottom","↓","1"
"","","","","","html-keyboard-response","200","2.1.0","175240","","null","
            <div class=""trial-screen"">
                <div class=""fixation-modern"">+</div>
            </div>
        ","null","","","","","",""
"","","","","","html-keyboard-response","201","2.1.0","176052","","811","
        <div class=""progress-bar"" style=""width: 35.833333333333336%;""></div>
        <div class=""trial-counter"">Trial 43 / 120</div>
        <div class=""trial-screen"">
            <div class=""center-image-container"">
                <img src=""images/high_neg/Fire 11.jpg"" class=""center-image"">
            </div>
            <div class=""arrow-subtle"" style=""left: 92%; top: 45%; transform: translate(-50%, -50%);"">
                ←
            </div>
        </div>
    ","ArrowLeft","images/high_neg/Fire 11.jpg","high_arousal_negative","←","right-mid","←","1"
"","","","","","html-keyboard-response","202","2.1.0","176858","","null","
            <div class=""trial-screen"">
                <div class=""fixation-modern"">+</div>
            </div>
        ","null","","","","","",""
"","","","","","html-keyboard-response","203","2.1.0","177740","","880","
        <div class=""progress-bar"" style=""width: 46.666666666666664%;""></div>
        <div class=""trial-counter"">Trial 56 / 120</div>
        <div class=""trial-screen"">
            <div class=""center-image-container"">
                <img src=""images/high_neg/War 8.jpg"" class=""center-image"">
            </div>
            <div class=""arrow-subtle"" style=""left: 8%; top: 45%; transform: translate(-50%, -50%);"">
                ↑
            </div>
        </div>
    ","ArrowUp","images/high_neg/War 8.jpg","high_arousal_negative","↑","left-mid","↑","1"
"","","","","","html-keyboard-response","204","2.1.0","178541","","null","
            <div class=""trial-screen"">
                <div class=""fixation-modern"">+</div>
            </div>
        ","null","","","","","",""
"","","","","","html-keyboard-response","205","2.1.0","179142","","600","
        <div class=""progress-bar"" style=""width: 93.33333333333333%;""></div>
        <div class=""trial-counter"">Trial 112 / 120</div>
        <div class=""trial-screen"">
            <div class=""center-image-container"">
                <img src=""images/high_pos/Beach 1.jpg"" class=""center-image"">
            </div>
            <div class=""arrow-subtle"" style=""left: 8%; top: 75%; transform: translate(-50%, -50%);"">
                ←
            </div>
        </div>
    ","ArrowLeft","images/high_pos/Beach 1.jpg","high_arousal_positive","←","left-bottom-upper","←","1"
"","","","","","html-keyboard-response","206","2.1.0","179942","","null","
            <div class=""trial-screen"">
                <div class=""fixation-modern"">+</div>
            </div>
        ","null","","","","","",""
"","","","","","html-keyboard-response","207","2.1.0","180654","","710","
        <div class=""progress-bar"" style=""width: 67.5%;""></div>
        <div class=""trial-counter"">Trial 81 / 120</div>
        <div class=""trial-screen"">
            <div class=""center-image-container"">
                <img src=""images/high_pos/Nude couple 5.jpg"" class=""center-image"">
            </div>
            <div class=""arrow-subtle"" style=""left: 92%; top: 75%; transform: translate(-50%, -50%);"">
                ←
            </div>
        </div>
    ","ArrowLeft","images/high_pos/Nude couple 5.jpg","high_arousal_positive","←","right-bottom-upper","←","1"
"","","","","","html-keyboard-response","208","2.1.0","181455","","null","
            <div class=""trial-screen"">
                <div class=""fixation-modern"">+</div>
            </div>
        ","null","","","","","",""
"","","","","","html-keyboard-response","209","2.1.0","182528","","1071","
        <div class=""progress-bar"" style=""width: 60%;""></div>
        <div class=""trial-counter"">Trial 72 / 120</div>
        <div class=""trial-screen"">
            <div class=""center-image-container"">
                <img src=""images/high_neg/War 8.jpg"" class=""center-image"">
            </div>
            <div class=""arrow-subtle"" style=""left: 92%; top: 75%; transform: translate(-50%, -50%);"">
                ↓
            </div>
        </div>
    ","ArrowDown","images/high_neg/War 8.jpg","high_arousal_negative","↓","right-bottom-upper","↓","1"
"","","","","","html-keyboard-response","210","2.1.0","183338","","null","
            <div class=""trial-screen"">
                <div class=""fixation-modern"">+</div>
            </div>
        ","null","","","","","",""
"","","","","","html-keyboard-response","211","2.1.0","184932","","1593","
        <div class=""progress-bar"" style=""width: 57.49999999999999%;""></div>
        <div class=""trial-counter"">Trial 69 / 120</div>
        <div class=""trial-screen"">
            <div class=""center-image-container"">
                <img src=""images/high_neg/Dummy 1.jpg"" class=""center-image"">
            </div>
            <div class=""arrow-subtle"" style=""left: 92%; top: 65%; transform: translate(-50%, -50%);"">
                ←
            </div>
        </div>
    ","ArrowLeft","images/high_neg/Dummy 1.jpg","high_arousal_negative","←","right-lower","←","1"
"","","","","","html-keyboard-response","212","2.1.0","185845","","null","
            <div class=""trial-screen"">
                <div class=""fixation-modern"">+</div>
            </div>
        ","null","","","","","",""
"","","","","","html-keyboard-response","213","2.1.0","186761","","915","
        <div class=""progress-bar"" style=""width: 90%;""></div>
        <div class=""trial-counter"">Trial 108 / 120</div>
        <div class=""trial-screen"">
            <div class=""center-image-container"">
                <img src=""images/high_pos/Rainbow 2.jpg"" class=""center-image"">
            </div>
            <div class=""arrow-subtle"" style=""left: 92%; top: 55%; transform: translate(-50%, -50%);"">
                →
            </div>
        </div>
    ","ArrowRight","images/high_pos/Rainbow 2.jpg","high_arousal_positive","→","right-mid-lower","→","1"
"","","","","","html-keyboard-response","214","2.1.0","187574","","null","
            <div class=""trial-screen"">
                <div class=""fixation-modern"">+</div>
            </div>
        ","null","","","","","",""
"","","","","","html-keyboard-response","215","2.1.0","188275","","700","
        <div class=""progress-bar"" style=""width: 1.6666666666666667%;""></div>
        <div class=""trial-counter"">Trial 2 / 120</div>
        <div class=""trial-screen"">
            <div class=""center-image-container"">
                <img src=""images/neutral/Wall 1.jpg"" class=""center-image"">
            </div>
            <div class=""arrow-subtle"" style=""left: 8%; top: 85%; transform: translate(-50%, -50%);"">
                ↑
            </div>
        </div>
    ","ArrowUp","images/neutral/Wall 1.jpg","neutral","↑","left-bottom","↑","1"
"","","","","","html-keyboard-response","216","2.1.0","189085","","null","
            <div class=""trial-screen"">
                <div class=""fixation-modern"">+</div>
            </div>
        ","null","","","","","",""
"","","","","","html-keyboard-response","217","2.1.0","189666","","579","
        <div class=""progress-bar"" style=""width: 63.33333333333333%;""></div>
        <div class=""trial-counter"">Trial 76 / 120</div>
        <div class=""trial-screen"">
            <div class=""center-image-container"">
                <img src=""images/high_neg/Fire 5.jpg"" class=""center-image"">
            </div>
            <div class=""arrow-subtle"" style=""left: 8%; top: 65%; transform: translate(-50%, -50%);"">
                ←
            </div>
        </div>
    ","ArrowLeft","images/high_neg/Fire 5.jpg","high_arousal_negative","←","left-lower","←","1"
"","","","","","html-keyboard-response","218","2.1.0","190480","","null","
            <div class=""trial-screen"">
                <div class=""fixation-modern"">+</div>
            </div>
        ","null","","","","","",""
"","","","","","html-keyboard-response","219","2.1.0","191445","","964","
        <div class=""progress-bar"" style=""width: 70%;""></div>
        <div class=""trial-counter"">Trial 84 / 120</div>
        <div class=""trial-screen"">
            <div class=""center-image-container"">
                <img src=""images/high_pos/Rainbow 2.jpg"" class=""center-image"">
            </div>
            <div class=""arrow-subtle"" style=""left: 92%; top: 45%; transform: translate(-50%, -50%);"">
                ↓
            </div>
        </div>
    ","ArrowDown","images/high_pos/Rainbow 2.jpg","high_arousal_positive","↓","right-mid","↓","1"
"","","","","","html-keyboard-response","220","2.1.0","192254","","null","
            <div class=""trial-screen"">
                <div class=""fixation-modern"">+</div>
            </div>
        ","null","","","","","",""
"","","","","","html-keyboard-response","221","2.1.0","192990","","735","
        <div class=""progress-bar"" style=""width: 31.666666666666664%;""></div>
        <div class=""trial-counter"">Trial 38 / 120</div>
        <div class=""trial-screen"">
            <div class=""center-image-container"">
                <img src=""images/neutral/Paper 3.jpg"" class=""center-image"">
            </div>
            <div class=""arrow-subtle"" style=""left: 8%; top: 35%; transform: translate(-50%, -50%);"">
                →
            </div>
        </div>
    ","ArrowRight","images/neutral/Paper 3.jpg","neutral","→","left-upper-mid","→","1"
"","","","","","html-keyboard-response","222","2.1.0","193799","","null","
            <div class=""trial-screen"">
                <div class=""fixation-modern"">+</div>
            </div>
        ","null","","","","","",""
"","","","","","html-keyboard-response","223","2.1.0","195464","","1664","
        <div class=""progress-bar"" style=""width: 61.66666666666667%;""></div>
        <div class=""trial-counter"">Trial 74 / 120</div>
        <div class=""trial-screen"">
            <div class=""center-image-container"">
                <img src=""images/high_neg/Explosion 5.jpg"" class=""center-image"">
            </div>
            <div class=""arrow-subtle"" style=""left: 8%; top: 35%; transform: translate(-50%, -50%);"">
                ↓
            </div>
        </div>
    ","ArrowDown","images/high_neg/Explosion 5.jpg","high_arousal_negative","↓","left-upper-mid","↓","1"
"","","","","","html-keyboard-response","224","2.1.0","196268","","null","
            <div class=""trial-screen"">
                <div class=""fixation-modern"">+</div>
            </div>
        ","null","","","","","",""
"","","","","","html-keyboard-response","225","2.1.0","197868","","1599","
        <div class=""progress-bar"" style=""width: 54.166666666666664%;""></div>
        <div class=""trial-counter"">Trial 65 / 120</div>
        <div class=""trial-screen"">
            <div class=""center-image-container"">
                <img src=""images/high_neg/Injury 4.jpg"" class=""center-image"">
            </div>
            <div class=""arrow-subtle"" style=""left: 92%; top: 85%; transform: translate(-50%, -50%);"">
                ↑
            </div>
        </div>
    ","ArrowUp","images/high_neg/Injury 4.jpg","high_arousal_negative","↑","right-bottom","↑","1"
"","","","","","html-keyboard-response","226","2.1.0","198670","","null","
            <div class=""trial-screen"">
                <div class=""fixation-modern"">+</div>
            </div>
        ","null","","","","","",""
"","","","","","html-keyboard-response","227","2.1.0","199913","","1244","
        <div class=""progress-bar"" style=""width: 51.66666666666667%;""></div>
        <div class=""trial-counter"">Trial 62 / 120</div>
        <div class=""trial-screen"">
            <div class=""center-image-container"">
                <img src=""images/high_neg/Fire 9.jpg"" class=""center-image"">
            </div>
            <div class=""arrow-subtle"" style=""left: 8%; top: 65%; transform: translate(-50%, -50%);"">
                ↑
            </div>
        </div>
    ","ArrowUp","images/high_neg/Fire 9.jpg","high_arousal_negative","↑","left-lower","↑","1"
"","","","","","html-keyboard-response","228","2.1.0","200726","","null","
            <div class=""trial-screen"">
                <div class=""fixation-modern"">+</div>
            </div>
        ","null","","","","","",""
"","","","","","html-keyboard-response","229","2.1.0","201441","","713","
        <div class=""progress-bar"" style=""width: 14.166666666666666%;""></div>
        <div class=""trial-counter"">Trial 17 / 120</div>
        <div class=""trial-screen"">
