"success","timeout","failed_images","failed_audio","failed_video","trial_type","trial_index","plugin_version","time_elapsed","view_history","rt","stimulus","response","image","image_category","arrow","arrow_position","response_arrow","correct"
"true","false","[]","[]","[]","preload","0","2.1.0","5","","","","","","","","","",""
"","","","","","instructions","1","2.1.0","8479","[{""page_index"":0,""viewing_time"":1923},{""page_index"":1,""viewing_time"":5553},{""page_index"":2,""viewing_time"":996}]","8472","","","","","","","",""
"","","","","","html-keyboard-response","2","2.1.0","9282","","null","
            <div class=""trial-screen"">
                <div class=""fixation-modern"">+</div>
            </div>
        ","null","","","","","",""
"","","","","","html-keyboard-response","3","2.1.0","10991","","1709","
        <div class=""progress-bar"" style=""width: 44.166666666666664%;""></div>
        <div class=""trial-counter"">Trial 53 / 120</div>
        <div class=""trial-screen"">
            <div class=""center-image-container"">
                <img src=""images/high_neg/Dummy 1.jpg"" class=""center-image"">
            </div>
            <div class=""arrow-subtle"" style=""left: 8%; top: 15%; transform: translate(-50%, -50%);"">
                ↓
            </div>
        </div>
    ","ArrowDown","images/high_neg/Dummy 1.jpg","high_arousal_negative","↓","left-top","↓","1"
"","","","","","html-keyboard-response","4","2.1.0","11798","","null","
            <div class=""trial-screen"">
                <div class=""fixation-modern"">+</div>
            </div>
        ","null","","","","","",""
"","","","","","html-keyboard-response","5","2.1.0","12555","","756","
        <div class=""progress-bar"" style=""width: 25%;""></div>
        <div class=""trial-counter"">Trial 30 / 120</div>
        <div class=""trial-screen"">
            <div class=""center-image-container"">
                <img src=""images/neutral/Paper 3.jpg"" class=""center-image"">
            </div>
            <div class=""arrow-subtle"" style=""left: 92%; top: 85%; transform: translate(-50%, -50%);"">
                ←
            </div>
        </div>
    ","ArrowLeft","images/neutral/Paper 3.jpg","neutral","←","right-bottom","←","1"
"","","","","","html-keyboard-response","6","2.1.0","13364","","null","
            <div class=""trial-screen"">
                <div class=""fixation-modern"">+</div>
            </div>
        ","null","","","","","",""
"","","","","","html-keyboard-response","7","2.1.0","14092","","727","
        <div class=""progress-bar"" style=""width: 3.3333333333333335%;""></div>
        <div class=""trial-counter"">Trial 4 / 120</div>
        <div class=""trial-screen"">
            <div class=""center-image-container"">
                <img src=""images/neutral/Bricks 1.jpg"" class=""center-image"">
            </div>
            <div class=""arrow-subtle"" style=""left: 92%; top: 25%; transform: translate(-50%, -50%);"">
                ↓
            </div>
        </div>
    ","ArrowDown","images/neutral/Bricks 1.jpg","neutral","↓","right-upper","↓","1"
"","","","","","html-keyboard-response","8","2.1.0","14980","","null","
            <div class=""trial-screen"">
                <div class=""fixation-modern"">+</div>
            </div>
        ","null","","","","","",""
"","","","","","html-keyboard-response","9","2.1.0","16195","","1214","
        <div class=""progress-bar"" style=""width: 43.333333333333336%;""></div>
        <div class=""trial-counter"">Trial 52 / 120</div>
        <div class=""trial-screen"">
            <div class=""center-image-container"">
                <img src=""images/high_neg/Fire 5.jpg"" class=""center-image"">
            </div>
            <div class=""arrow-subtle"" style=""left: 92%; top: 55%; transform: translate(-50%, -50%);"">
                ↓
            </div>
        </div>
    ","ArrowDown","images/high_neg/Fire 5.jpg","high_arousal_negative","↓","right-mid-lower","↓","1"
"","","","","","html-keyboard-response","10","2.1.0","16997","","null","
            <div class=""trial-screen"">
                <div class=""fixation-modern"">+</div>
            </div>
        ","null","","","","","",""
"","","","","","html-keyboard-response","11","2.1.0","18047","","1050","
        <div class=""progress-bar"" style=""width: 8.333333333333332%;""></div>
        <div class=""trial-counter"">Trial 10 / 120</div>
        <div class=""trial-screen"">
            <div class=""center-image-container"">
                <img src=""images/neutral/Wall 1.jpg"" class=""center-image"">
            </div>
            <div class=""arrow-subtle"" style=""left: 8%; top: 35%; transform: translate(-50%, -50%);"">
                ↓
            </div>
        </div>
    ","ArrowDown","images/neutral/Wall 1.jpg","neutral","↓","left-upper-mid","↓","1"
"","","","","","html-keyboard-response","12","2.1.0","18858","","null","
            <div class=""trial-screen"">
                <div class=""fixation-modern"">+</div>
            </div>
        ","null","","","","","",""
"","","","","","html-keyboard-response","13","2.1.0","20090","","1231","
        <div class=""progress-bar"" style=""width: 62.5%;""></div>
        <div class=""trial-counter"">Trial 75 / 120</div>
        <div class=""trial-screen"">
            <div class=""center-image-container"">
                <img src=""images/high_neg/Fire 11.jpg"" class=""center-image"">
            </div>
            <div class=""arrow-subtle"" style=""left: 8%; top: 45%; transform: translate(-50%, -50%);"">
                ↑
            </div>
        </div>
    ","ArrowUp","images/high_neg/Fire 11.jpg","high_arousal_negative","↑","left-mid","↑","1"
"","","","","","html-keyboard-response","14","2.1.0","20906","","null","
            <div class=""trial-screen"">
                <div class=""fixation-modern"">+</div>
            </div>
        ","null","","","","","",""
"","","","","","html-keyboard-response","15","2.1.0","24118","","3211","
        <div class=""progress-bar"" style=""width: 20%;""></div>
        <div class=""trial-counter"">Trial 24 / 120</div>
        <div class=""trial-screen"">
            <div class=""center-image-container"">
                <img src=""images/neutral/Office supplies 2.jpg"" class=""center-image"">
            </div>
            <div class=""arrow-subtle"" style=""left: 8%; top: 35%; transform: translate(-50%, -50%);"">
                ↓
            </div>
        </div>
    ","ArrowDown","images/neutral/Office supplies 2.jpg","neutral","↓","left-upper-mid","↓","1"
"","","","","","html-keyboard-response","16","2.1.0","24925","","null","
            <div class=""trial-screen"">
                <div class=""fixation-modern"">+</div>
            </div>
        ","null","","","","","",""
"","","","","","html-keyboard-response","17","2.1.0","25760","","835","
        <div class=""progress-bar"" style=""width: 16.666666666666664%;""></div>
        <div class=""trial-counter"">Trial 20 / 120</div>
        <div class=""trial-screen"">
            <div class=""center-image-container"">
                <img src=""images/neutral/Bricks 1.jpg"" class=""center-image"">
            </div>
            <div class=""arrow-subtle"" style=""left: 8%; top: 45%; transform: translate(-50%, -50%);"">
                ←
            </div>
        </div>
    ","ArrowLeft","images/neutral/Bricks 1.jpg","neutral","←","left-mid","←","1"
"","","","","","html-keyboard-response","18","2.1.0","26562","","null","
            <div class=""trial-screen"">
                <div class=""fixation-modern"">+</div>
            </div>
        ","null","","","","","",""
"","","","","","html-keyboard-response","19","2.1.0","27461","","899","
        <div class=""progress-bar"" style=""width: 75%;""></div>
        <div class=""trial-counter"">Trial 90 / 120</div>
        <div class=""trial-screen"">
            <div class=""center-image-container"">
                <img src=""images/high_pos/Dog 6.jpg"" class=""center-image"">
            </div>
            <div class=""arrow-subtle"" style=""left: 92%; top: 75%; transform: translate(-50%, -50%);"">
                →
            </div>
        </div>
    ","ArrowRight","images/high_pos/Dog 6.jpg","high_arousal_positive","→","right-bottom-upper","→","1"
"","","","","","html-keyboard-response","20","2.1.0","28326","","null","
            <div class=""trial-screen"">
                <div class=""fixation-modern"">+</div>
            </div>
        ","null","","","","","",""
"","","","","","html-keyboard-response","21","2.1.0","29486","","1159","
        <div class=""progress-bar"" style=""width: 30.833333333333336%;""></div>
        <div class=""trial-counter"">Trial 37 / 120</div>
        <div class=""trial-screen"">
            <div class=""center-image-container"">
                <img src=""images/neutral/Cotton swabs 3.jpg"" class=""center-image"">
            </div>
            <div class=""arrow-subtle"" style=""left: 8%; top: 85%; transform: translate(-50%, -50%);"">
                ↓
            </div>
        </div>
    ","ArrowDown","images/neutral/Cotton swabs 3.jpg","neutral","↓","left-bottom","↓","1"
"","","","","","html-keyboard-response","22","2.1.0","30335","","null","
            <div class=""trial-screen"">
                <div class=""fixation-modern"">+</div>
            </div>
        ","null","","","","","",""
"","","","","","html-keyboard-response","23","2.1.0","31409","","1073","
        <div class=""progress-bar"" style=""width: 71.66666666666667%;""></div>
        <div class=""trial-counter"">Trial 86 / 120</div>
        <div class=""trial-screen"">
            <div class=""center-image-container"">
                <img src=""images/high_pos/Cat 5.jpg"" class=""center-image"">
            </div>
            <div class=""arrow-subtle"" style=""left: 8%; top: 75%; transform: translate(-50%, -50%);"">
                ↑
            </div>
        </div>
    ","ArrowUp","images/high_pos/Cat 5.jpg","high_arousal_positive","↑","left-bottom-upper","↑","1"
"","","","","","html-keyboard-response","24","2.1.0","32219","","null","
            <div class=""trial-screen"">
                <div class=""fixation-modern"">+</div>
            </div>
        ","null","","","","","",""
"","","","","","html-keyboard-response","25","2.1.0","34488","","2268","
        <div class=""progress-bar"" style=""width: 4.166666666666666%;""></div>
        <div class=""trial-counter"">Trial 5 / 120</div>
        <div class=""trial-screen"">
            <div class=""center-image-container"">
                <img src=""images/neutral/Cotton swabs 3.jpg"" class=""center-image"">
            </div>
            <div class=""arrow-subtle"" style=""left: 8%; top: 55%; transform: translate(-50%, -50%);"">
                ↑
            </div>
        </div>
    ","ArrowUp","images/neutral/Cotton swabs 3.jpg","neutral","↑","left-mid-lower","↑","1"
"","","","","","html-keyboard-response","26","2.1.0","35359","","null","
            <div class=""trial-screen"">
                <div class=""fixation-modern"">+</div>
            </div>
        ","null","","","","","",""
"","","","","","html-keyboard-response","27","2.1.0","36070","","709","
        <div class=""progress-bar"" style=""width: 24.166666666666668%;""></div>
        <div class=""trial-counter"">Trial 29 / 120</div>
        <div class=""trial-screen"">
            <div class=""center-image-container"">
                <img src=""images/neutral/Cotton swabs 3.jpg"" class=""center-image"">
            </div>
            <div class=""arrow-subtle"" style=""left: 8%; top: 85%; transform: translate(-50%, -50%);"">
                ↓
            </div>
        </div>
    ","ArrowDown","images/neutral/Cotton swabs 3.jpg","neutral","↓","left-bottom","↓","1"
"","","","","","html-keyboard-response","28","2.1.0","36878","","null","
            <div class=""trial-screen"">
                <div class=""fixation-modern"">+</div>
            </div>
        ","null","","","","","",""
"","","","","","html-keyboard-response","29","2.1.0","38263","","1384","
        <div class=""progress-bar"" style=""width: 95.83333333333334%;""></div>
        <div class=""trial-counter"">Trial 115 / 120</div>
        <div class=""trial-screen"">
            <div class=""center-image-container"">
                <img src=""images/high_pos/Fireworks 2.jpg"" class=""center-image"">
            </div>
            <div class=""arrow-subtle"" style=""left: 92%; top: 15%; transform: translate(-50%, -50%);"">
                ←
            </div>
        </div>
    ","ArrowLeft","images/high_pos/Fireworks 2.jpg","high_arousal_positive","←","right-top","←","1"
"","","","","","html-keyboard-response","30","2.1.0","39067","","null","
            <div class=""trial-screen"">
                <div class=""fixation-modern"">+</div>
            </div>
        ","null","","","","","",""
"","","","","","html-keyboard-response","31","2.1.0","39728","","659","
        <div class=""progress-bar"" style=""width: 21.666666666666668%;""></div>
        <div class=""trial-counter"">Trial 26 / 120</div>
        <div class=""trial-screen"">
            <div class=""center-image-container"">
                <img src=""images/neutral/Wall 1.jpg"" class=""center-image"">
            </div>
            <div class=""arrow-subtle"" style=""left: 8%; top: 25%; transform: translate(-50%, -50%);"">
                ←
            </div>
        </div>
    ","ArrowLeft","images/neutral/Wall 1.jpg","neutral","←","left-upper","←","1"
"","","","","","html-keyboard-response","32","2.1.0","40529","","null","
            <div class=""trial-screen"">
                <div class=""fixation-modern"">+</div>
            </div>
        ","null","","","","","",""
"","","","","","html-keyboard-response","33","2.1.0","41461","","930","
        <div class=""progress-bar"" style=""width: 70.83333333333334%;""></div>
        <div class=""trial-counter"">Trial 85 / 120</div>
        <div class=""trial-screen"">
            <div class=""center-image-container"">
                <img src=""images/high_pos/Dog 18.jpg"" class=""center-image"">
            </div>
            <div class=""arrow-subtle"" style=""left: 8%; top: 85%; transform: translate(-50%, -50%);"">
                ←
            </div>
        </div>
    ","ArrowLeft","images/high_pos/Dog 18.jpg","high_arousal_positive","←","left-bottom","←","1"
"","","","","","html-keyboard-response","34","2.1.0","42267","","null","
            <div class=""trial-screen"">
                <div class=""fixation-modern"">+</div>
            </div>
        ","null","","","","","",""
"","","","","","html-keyboard-response","35","2.1.0","43322","","1054","
        <div class=""progress-bar"" style=""width: 76.66666666666667%;""></div>
        <div class=""trial-counter"">Trial 92 / 120</div>
        <div class=""trial-screen"">
            <div class=""center-image-container"">
                <img src=""images/high_pos/Rainbow 2.jpg"" class=""center-image"">
            </div>
            <div class=""arrow-subtle"" style=""left: 8%; top: 75%; transform: translate(-50%, -50%);"">
                ↓
            </div>
        </div>
    ","ArrowDown","images/high_pos/Rainbow 2.jpg","high_arousal_positive","↓","left-bottom-upper","↓","1"
"","","","","","html-keyboard-response","36","2.1.0","44131","","null","
            <div class=""trial-screen"">
                <div class=""fixation-modern"">+</div>
            </div>
        ","null","","","","","",""
"","","","","","html-keyboard-response","37","2.1.0","45062","","930","
        <div class=""progress-bar"" style=""width: 73.33333333333333%;""></div>
        <div class=""trial-counter"">Trial 88 / 120</div>
        <div class=""trial-screen"">
            <div class=""center-image-container"">
                <img src=""images/high_pos/Beach 1.jpg"" class=""center-image"">
            </div>
            <div class=""arrow-subtle"" style=""left: 92%; top: 25%; transform: translate(-50%, -50%);"">
                →
            </div>
        </div>
    ","ArrowRight","images/high_pos/Beach 1.jpg","high_arousal_positive","→","right-upper","→","1"
"","","","","","html-keyboard-response","38","2.1.0","45874","","null","
            <div class=""trial-screen"">
                <div class=""fixation-modern"">+</div>
            </div>
        ","null","","","","","",""
"","","","","","html-keyboard-response","39","2.1.0","48972","","3098","
        <div class=""progress-bar"" style=""width: 95%;""></div>
        <div class=""trial-counter"">Trial 114 / 120</div>
        <div class=""trial-screen"">
            <div class=""center-image-container"">
                <img src=""images/high_pos/Dog 6.jpg"" class=""center-image"">
            </div>
            <div class=""arrow-subtle"" style=""left: 92%; top: 45%; transform: translate(-50%, -50%);"">
                ←
            </div>
        </div>
    ","ArrowLeft","images/high_pos/Dog 6.jpg","high_arousal_positive","←","right-mid","←","1"
"","","","","","html-keyboard-response","40","2.1.0","49781","","null","
            <div class=""trial-screen"">
                <div class=""fixation-modern"">+</div>
            </div>
        ","null","","","","","",""
"","","","","","html-keyboard-response","41","2.1.0","51671","","1888","
        <div class=""progress-bar"" style=""width: 98.33333333333333%;""></div>
        <div class=""trial-counter"">Trial 118 / 120</div>
        <div class=""trial-screen"">
            <div class=""center-image-container"">
                <img src=""images/high_pos/Cat 5.jpg"" class=""center-image"">
            </div>
            <div class=""arrow-subtle"" style=""left: 8%; top: 55%; transform: translate(-50%, -50%);"">
                →
            </div>
        </div>
    ","ArrowRight","images/high_pos/Cat 5.jpg","high_arousal_positive","→","left-mid-lower","→","1"
"","","","","","html-keyboard-response","42","2.1.0","52483","","null","
            <div class=""trial-screen"">
                <div class=""fixation-modern"">+</div>
            </div>
        ","null","","","","","",""
"","","","","","html-keyboard-response","43","2.1.0","53306","","821","
        <div class=""progress-bar"" style=""width: 35%;""></div>
        <div class=""trial-counter"">Trial 42 / 120</div>
        <div class=""trial-screen"">
            <div class=""center-image-container"">
                <img src=""images/high_neg/Explosion 5.jpg"" class=""center-image"">
            </div>
            <div class=""arrow-subtle"" style=""left: 8%; top: 65%; transform: translate(-50%, -50%);"">
                →
            </div>
        </div>
    ","ArrowRight","images/high_neg/Explosion 5.jpg","high_arousal_negative","→","left-lower","→","1"
"","","","","","html-keyboard-response","44","2.1.0","54108","","null","
            <div class=""trial-screen"">
                <div class=""fixation-modern"">+</div>
            </div>
        ","null","","","","","",""
"","","","","","html-keyboard-response","45","2.1.0","55393","","1284","
        <div class=""progress-bar"" style=""width: 70%;""></div>
        <div class=""trial-counter"">Trial 84 / 120</div>
        <div class=""trial-screen"">
            <div class=""center-image-container"">
                <img src=""images/high_pos/Rainbow 2.jpg"" class=""center-image"">
            </div>
            <div class=""arrow-subtle"" style=""left: 92%; top: 25%; transform: translate(-50%, -50%);"">
                ←
            </div>
        </div>
    ","ArrowLeft","images/high_pos/Rainbow 2.jpg","high_arousal_positive","←","right-upper","←","1"
"","","","","","html-keyboard-response","46","2.1.0","56203","","null","
            <div class=""trial-screen"">
                <div class=""fixation-modern"">+</div>
            </div>
        ","null","","","","","",""
"","","","","","html-keyboard-response","47","2.1.0","56882","","678","
        <div class=""progress-bar"" style=""width: 5%;""></div>
        <div class=""trial-counter"">Trial 6 / 120</div>
        <div class=""trial-screen"">
            <div class=""center-image-container"">
                <img src=""images/neutral/Paper 3.jpg"" class=""center-image"">
            </div>
            <div class=""arrow-subtle"" style=""left: 8%; top: 25%; transform: translate(-50%, -50%);"">
                ←
            </div>
        </div>
    ","ArrowLeft","images/neutral/Paper 3.jpg","neutral","←","left-upper","←","1"
"","","","","","html-keyboard-response","48","2.1.0","57695","","null","
            <div class=""trial-screen"">
                <div class=""fixation-modern"">+</div>
            </div>
        ","null","","","","","",""
"","","","","","html-keyboard-response","49","2.1.0","58811","","1115","
        <div class=""progress-bar"" style=""width: 65%;""></div>
        <div class=""trial-counter"">Trial 78 / 120</div>
        <div class=""trial-screen"">
            <div class=""center-image-container"">
                <img src=""images/high_neg/Fire 9.jpg"" class=""center-image"">
            </div>
            <div class=""arrow-subtle"" style=""left: 8%; top: 65%; transform: translate(-50%, -50%);"">
                ←
            </div>
        </div>
    ","ArrowLeft","images/high_neg/Fire 9.jpg","high_arousal_negative","←","left-lower","←","1"
"","","","","","html-keyboard-response","50","2.1.0","59622","","null","
            <div class=""trial-screen"">
                <div class=""fixation-modern"">+</div>
            </div>
        ","null","","","","","",""
"","","","","","html-keyboard-response","51","2.1.0","60767","","1146","
        <div class=""progress-bar"" style=""width: 87.5%;""></div>
        <div class=""trial-counter"">Trial 105 / 120</div>
        <div class=""trial-screen"">
            <div class=""center-image-container"">
                <img src=""images/high_pos/Nude couple 5.jpg"" class=""center-image"">
            </div>
            <div class=""arrow-subtle"" style=""left: 92%; top: 75%; transform: translate(-50%, -50%);"">
                ↓
            </div>
        </div>
    ","ArrowDown","images/high_pos/Nude couple 5.jpg","high_arousal_positive","↓","right-bottom-upper","↓","1"
"","","","","","html-keyboard-response","52","2.1.0","61571","","null","
            <div class=""trial-screen"">
                <div class=""fixation-modern"">+</div>
            </div>
        ","null","","","","","",""
"","","","","","html-keyboard-response","53","2.1.0","62251","","680","
        <div class=""progress-bar"" style=""width: 90%;""></div>
        <div class=""trial-counter"">Trial 108 / 120</div>
        <div class=""trial-screen"">
            <div class=""center-image-container"">
                <img src=""images/high_pos/Rainbow 2.jpg"" class=""center-image"">
            </div>
            <div class=""arrow-subtle"" style=""left: 92%; top: 85%; transform: translate(-50%, -50%);"">
                →
            </div>
        </div>
    ","ArrowRight","images/high_pos/Rainbow 2.jpg","high_arousal_positive","→","right-bottom","→","1"
"","","","","","html-keyboard-response","54","2.1.0","63062","","null","
            <div class=""trial-screen"">
                <div class=""fixation-modern"">+</div>
            </div>
        ","null","","","","","",""
"","","","","","html-keyboard-response","55","2.1.0","64091","","1028","
        <div class=""progress-bar"" style=""width: 96.66666666666667%;""></div>
        <div class=""trial-counter"">Trial 116 / 120</div>
        <div class=""trial-screen"">
            <div class=""center-image-container"">
                <img src=""images/high_pos/Rainbow 2.jpg"" class=""center-image"">
            </div>
            <div class=""arrow-subtle"" style=""left: 8%; top: 85%; transform: translate(-50%, -50%);"">
                ←
            </div>
        </div>
    ","ArrowLeft","images/high_pos/Rainbow 2.jpg","high_arousal_positive","←","left-bottom","←","1"
"","","","","","html-keyboard-response","56","2.1.0","64893","","null","
            <div class=""trial-screen"">
                <div class=""fixation-modern"">+</div>
            </div>
        ","null","","","","","",""
"","","","","","html-keyboard-response","57","2.1.0","66035","","1141","
        <div class=""progress-bar"" style=""width: 11.666666666666666%;""></div>
        <div class=""trial-counter"">Trial 14 / 120</div>
        <div class=""trial-screen"">
            <div class=""center-image-container"">
                <img src=""images/neutral/Paper 3.jpg"" class=""center-image"">
            </div>
            <div class=""arrow-subtle"" style=""left: 8%; top: 35%; transform: translate(-50%, -50%);"">
                ←
            </div>
        </div>
    ","ArrowLeft","images/neutral/Paper 3.jpg","neutral","←","left-upper-mid","←","1"
"","","","","","html-keyboard-response","58","2.1.0","66848","","null","
            <div class=""trial-screen"">
                <div class=""fixation-modern"">+</div>
            </div>
        ","null","","","","","",""
"","","","","","html-keyboard-response","59","2.1.0","68572","","1723","
        <div class=""progress-bar"" style=""width: 48.333333333333336%;""></div>
        <div class=""trial-counter"">Trial 58 / 120</div>
        <div class=""trial-screen"">
            <div class=""center-image-container"">
                <img src=""images/high_neg/Explosion 5.jpg"" class=""center-image"">
            </div>
            <div class=""arrow-subtle"" style=""left: 8%; top: 75%; transform: translate(-50%, -50%);"">
                ←
            </div>
        </div>
    ","ArrowLeft","images/high_neg/Explosion 5.jpg","high_arousal_negative","←","left-bottom-upper","←","1"
"","","","","","html-keyboard-response","60","2.1.0","69383","","null","
            <div class=""trial-screen"">
                <div class=""fixation-modern"">+</div>
            </div>
        ","null","","","","","",""
"","","","","","html-keyboard-response","61","2.1.0","70415","","1033","
        <div class=""progress-bar"" style=""width: 2.5%;""></div>
        <div class=""trial-counter"">Trial 3 / 120</div>
        <div class=""trial-screen"">
            <div class=""center-image-container"">
                <img src=""images/neutral/Wall 3.jpg"" class=""center-image"">
            </div>
            <div class=""arrow-subtle"" style=""left: 8%; top: 55%; transform: translate(-50%, -50%);"">
                →
            </div>
        </div>
    ","ArrowRight","images/neutral/Wall 3.jpg","neutral","→","left-mid-lower","→","1"
"","","","","","html-keyboard-response","62","2.1.0","71222","","null","
            <div class=""trial-screen"">
                <div class=""fixation-modern"">+</div>
            </div>
        ","null","","","","","",""
"","","","","","html-keyboard-response","63","2.1.0","72087","","863","
        <div class=""progress-bar"" style=""width: 90.83333333333333%;""></div>
        <div class=""trial-counter"">Trial 109 / 120</div>
        <div class=""trial-screen"">
            <div class=""center-image-container"">
                <img src=""images/high_pos/Dog 18.jpg"" class=""center-image"">
            </div>
            <div class=""arrow-subtle"" style=""left: 8%; top: 85%; transform: translate(-50%, -50%);"">
                →
            </div>
        </div>
    ","ArrowRight","images/high_pos/Dog 18.jpg","high_arousal_positive","→","left-bottom","→","1"
"","","","","","html-keyboard-response","64","2.1.0","72894","","null","
            <div class=""trial-screen"">
                <div class=""fixation-modern"">+</div>
            </div>
        ","null","","","","","",""
"","","","","","html-keyboard-response","65","2.1.0","73859","","963","
        <div class=""progress-bar"" style=""width: 97.5%;""></div>
        <div class=""trial-counter"">Trial 117 / 120</div>
        <div class=""trial-screen"">
            <div class=""center-image-container"">
                <img src=""images/high_pos/Dog 18.jpg"" class=""center-image"">
            </div>
            <div class=""arrow-subtle"" style=""left: 8%; top: 45%; transform: translate(-50%, -50%);"">
                →
            </div>
        </div>
    ","ArrowRight","images/high_pos/Dog 18.jpg","high_arousal_positive","→","left-mid","→","1"
"","","","","","html-keyboard-response","66","2.1.0","74662","","null","
            <div class=""trial-screen"">
                <div class=""fixation-modern"">+</div>
            </div>
        ","null","","","","","",""
"","","","","","html-keyboard-response","67","2.1.0","76351","","1688","
        <div class=""progress-bar"" style=""width: 52.5%;""></div>
        <div class=""trial-counter"">Trial 63 / 120</div>
        <div class=""trial-screen"">
            <div class=""center-image-container"">
                <img src=""images/high_neg/Miserable pose 3.jpg"" class=""center-image"">
            </div>
            <div class=""arrow-subtle"" style=""left: 92%; top: 25%; transform: translate(-50%, -50%);"">
                ↓
            </div>
        </div>
    ","ArrowDown","images/high_neg/Miserable pose 3.jpg","high_arousal_negative","↓","right-upper","↓","1"
"","","","","","html-keyboard-response","68","2.1.0","77162","","null","
            <div class=""trial-screen"">
                <div class=""fixation-modern"">+</div>
            </div>
        ","null","","","","","",""
"","","","","","html-keyboard-response","69","2.1.0","78288","","1125","
        <div class=""progress-bar"" style=""width: 94.16666666666667%;""></div>
        <div class=""trial-counter"">Trial 113 / 120</div>
        <div class=""trial-screen"">
            <div class=""center-image-container"">
                <img src=""images/high_pos/Nude couple 5.jpg"" class=""center-image"">
            </div>
            <div class=""arrow-subtle"" style=""left: 8%; top: 15%; transform: translate(-50%, -50%);"">
                ↓
            </div>
        </div>
    ","ArrowDown","images/high_pos/Nude couple 5.jpg","high_arousal_positive","↓","left-top","↓","1"
"","","","","","html-keyboard-response","70","2.1.0","79094","","null","
            <div class=""trial-screen"">
                <div class=""fixation-modern"">+</div>
            </div>
        ","null","","","","","",""
"","","","","","html-keyboard-response","71","2.1.0","81233","","2139","
        <div class=""progress-bar"" style=""width: 89.16666666666667%;""></div>
        <div class=""trial-counter"">Trial 107 / 120</div>
        <div class=""trial-screen"">
            <div class=""center-image-container"">
                <img src=""images/high_pos/Fireworks 2.jpg"" class=""center-image"">
            </div>
            <div class=""arrow-subtle"" style=""left: 8%; top: 45%; transform: translate(-50%, -50%);"">
                ←
            </div>
        </div>
    ","ArrowLeft","images/high_pos/Fireworks 2.jpg","high_arousal_positive","←","left-mid","←","1"
"","","","","","html-keyboard-response","72","2.1.0","82041","","null","
            <div class=""trial-screen"">
                <div class=""fixation-modern"">+</div>
            </div>
        ","null","","","","","",""
"","","","","","html-keyboard-response","73","2.1.0","83423","","1381","
        <div class=""progress-bar"" style=""width: 64.16666666666667%;""></div>
        <div class=""trial-counter"">Trial 77 / 120</div>
        <div class=""trial-screen"">
            <div class=""center-image-container"">
                <img src=""images/high_neg/Dummy 1.jpg"" class=""center-image"">
            </div>
            <div class=""arrow-subtle"" style=""left: 8%; top: 65%; transform: translate(-50%, -50%);"">
                ↑
            </div>
        </div>
    ","ArrowUp","images/high_neg/Dummy 1.jpg","high_arousal_negative","↑","left-lower","↑","1"
"","","","","","html-keyboard-response","74","2.1.0","84232","","null","
            <div class=""trial-screen"">
                <div class=""fixation-modern"">+</div>
            </div>
        ","null","","","","","",""
"","","","","","html-keyboard-response","75","2.1.0","85534","","1301","
        <div class=""progress-bar"" style=""width: 67.5%;""></div>
        <div class=""trial-counter"">Trial 81 / 120</div>
        <div class=""trial-screen"">
            <div class=""center-image-container"">
                <img src=""images/high_pos/Nude couple 5.jpg"" class=""center-image"">
            </div>
            <div class=""arrow-subtle"" style=""left: 8%; top: 75%; transform: translate(-50%, -50%);"">
                ↑
            </div>
        </div>
    ","ArrowUp","images/high_pos/Nude couple 5.jpg","high_arousal_positive","↑","left-bottom-upper","↑","1"
"","","","","","html-keyboard-response","76","2.1.0","86338","","null","
            <div class=""trial-screen"">
                <div class=""fixation-modern"">+</div>
            </div>
        ","null","","","","","",""
"","","","","","html-keyboard-response","77","2.1.0","87351","","1012","
        <div class=""progress-bar"" style=""width: 23.333333333333332%;""></div>
        <div class=""trial-counter"">Trial 28 / 120</div>
        <div class=""trial-screen"">
            <div class=""center-image-container"">
                <img src=""images/neutral/Bricks 1.jpg"" class=""center-image"">
            </div>
            <div class=""arrow-subtle"" style=""left: 92%; top: 15%; transform: translate(-50%, -50%);"">
                ←
            </div>
        </div>
    ","ArrowLeft","images/neutral/Bricks 1.jpg","neutral","←","right-top","←","1"
"","","","","","html-keyboard-response","78","2.1.0","88161","","null","
            <div class=""trial-screen"">
                <div class=""fixation-modern"">+</div>
            </div>
        ","null","","","","","",""
"","","","","","html-keyboard-response","79","2.1.0","89706","","1544","
        <div class=""progress-bar"" style=""width: 88.33333333333333%;""></div>
        <div class=""trial-counter"">Trial 106 / 120</div>
        <div class=""trial-screen"">
            <div class=""center-image-container"">
                <img src=""images/high_pos/Dog 6.jpg"" class=""center-image"">
            </div>
            <div class=""arrow-subtle"" style=""left: 8%; top: 65%; transform: translate(-50%, -50%);"">
                ↓
            </div>
        </div>
    ","ArrowDown","images/high_pos/Dog 6.jpg","high_arousal_positive","↓","left-lower","↓","1"
"","","","","","html-keyboard-response","80","2.1.0","90508","","null","
            <div class=""trial-screen"">
                <div class=""fixation-modern"">+</div>
            </div>
        ","null","","","","","",""
"","","","","","html-keyboard-response","81","2.1.0","91805","","1295","
        <div class=""progress-bar"" style=""width: 37.5%;""></div>
        <div class=""trial-counter"">Trial 45 / 120</div>
        <div class=""trial-screen"">
            <div class=""center-image-container"">
                <img src=""images/high_neg/Dummy 1.jpg"" class=""center-image"">
            </div>
            <div class=""arrow-subtle"" style=""left: 8%; top: 55%; transform: translate(-50%, -50%);"">
                ↓
            </div>
        </div>
    ","ArrowDown","images/high_neg/Dummy 1.jpg","high_arousal_negative","↓","left-mid-lower","↓","1"
"","","","","","html-keyboard-response","82","2.1.0","92611","","null","
            <div class=""trial-screen"">
                <div class=""fixation-modern"">+</div>
            </div>
        ","null","","","","","",""
"","","","","","html-keyboard-response","83","2.1.0","93298","","686","
        <div class=""progress-bar"" style=""width: 86.66666666666667%;""></div>
        <div class=""trial-counter"">Trial 104 / 120</div>
        <div class=""trial-screen"">
            <div class=""center-image-container"">
                <img src=""images/high_pos/Beach 1.jpg"" class=""center-image"">
            </div>
            <div class=""arrow-subtle"" style=""left: 8%; top: 25%; transform: translate(-50%, -50%);"">
                ↓
            </div>
        </div>
    ","ArrowDown","images/high_pos/Beach 1.jpg","high_arousal_positive","↓","left-upper","↓","1"
"","","","","","html-keyboard-response","84","2.1.0","94104","","null","
            <div class=""trial-screen"">
                <div class=""fixation-modern"">+</div>
            </div>
        ","null","","","","","",""
"","","","","","html-keyboard-response","85","2.1.0","95448","","1344","
        <div class=""progress-bar"" style=""width: 83.33333333333334%;""></div>
        <div class=""trial-counter"">Trial 100 / 120</div>
        <div class=""trial-screen"">
            <div class=""center-image-container"">
                <img src=""images/high_pos/Rainbow 2.jpg"" class=""center-image"">
            </div>
            <div class=""arrow-subtle"" style=""left: 92%; top: 45%; transform: translate(-50%, -50%);"">
                →
            </div>
        </div>
    ","ArrowRight","images/high_pos/Rainbow 2.jpg","high_arousal_positive","→","right-mid","→","1"
"","","","","","html-keyboard-response","86","2.1.0","96262","","null","
            <div class=""trial-screen"">
                <div class=""fixation-modern"">+</div>
            </div>
        ","null","","","","","",""
"","","","","","html-keyboard-response","87","2.1.0","97325","","1063","
        <div class=""progress-bar"" style=""width: 22.5%;""></div>
        <div class=""trial-counter"">Trial 27 / 120</div>
        <div class=""trial-screen"">
            <div class=""center-image-container"">
                <img src=""images/neutral/Wall 3.jpg"" class=""center-image"">
            </div>
            <div class=""arrow-subtle"" style=""left: 8%; top: 75%; transform: translate(-50%, -50%);"">
                ↓
            </div>
        </div>
    ","ArrowDown","images/neutral/Wall 3.jpg","neutral","↓","left-bottom-upper","↓","1"
"","","","","","html-keyboard-response","88","2.1.0","98132","","null","
            <div class=""trial-screen"">
                <div class=""fixation-modern"">+</div>
            </div>
        ","null","","","","","",""
"","","","","","html-keyboard-response","89","2.1.0","98901","","769","
        <div class=""progress-bar"" style=""width: 54.166666666666664%;""></div>
        <div class=""trial-counter"">Trial 65 / 120</div>
        <div class=""trial-screen"">
            <div class=""center-image-container"">
                <img src=""images/high_neg/Injury 4.jpg"" class=""center-image"">
            </div>
            <div class=""arrow-subtle"" style=""left: 92%; top: 15%; transform: translate(-50%, -50%);"">
                →
            </div>
        </div>
    ","ArrowRight","images/high_neg/Injury 4.jpg","high_arousal_negative","→","right-top","→","1"
"","","","","","html-keyboard-response","90","2.1.0","99712","","null","
            <div class=""trial-screen"">
                <div class=""fixation-modern"">+</div>
            </div>
        ","null","","","","","",""
"","","","","","html-keyboard-response","91","2.1.0","100460","","747","
        <div class=""progress-bar"" style=""width: 78.33333333333333%;""></div>
        <div class=""trial-counter"">Trial 94 / 120</div>
        <div class=""trial-screen"">
            <div class=""center-image-container"">
                <img src=""images/high_pos/Cat 5.jpg"" class=""center-image"">
            </div>
            <div class=""arrow-subtle"" style=""left: 8%; top: 55%; transform: translate(-50%, -50%);"">
                →
            </div>
        </div>
    ","ArrowRight","images/high_pos/Cat 5.jpg","high_arousal_positive","→","left-mid-lower","→","1"
"","","","","","html-keyboard-response","92","2.1.0","101262","","null","
            <div class=""trial-screen"">
                <div class=""fixation-modern"">+</div>
            </div>
        ","null","","","","","",""
"","","","","","html-keyboard-response","93","2.1.0","102314","","1052","
        <div class=""progress-bar"" style=""width: 49.166666666666664%;""></div>
        <div class=""trial-counter"">Trial 59 / 120</div>
        <div class=""trial-screen"">
            <div class=""center-image-container"">
                <img src=""images/high_neg/Fire 11.jpg"" class=""center-image"">
            </div>
            <div class=""arrow-subtle"" style=""left: 92%; top: 85%; transform: translate(-50%, -50%);"">
                →
            </div>
        </div>
    ","ArrowRight","images/high_neg/Fire 11.jpg","high_arousal_negative","→","right-bottom","→","1"
"","","","","","html-keyboard-response","94","2.1.0","103128","","null","
            <div class=""trial-screen"">
                <div class=""fixation-modern"">+</div>
            </div>
        ","null","","","","","",""
"","","","","","html-keyboard-response","95","2.1.0","104013","","884","
        <div class=""progress-bar"" style=""width: 85.83333333333333%;""></div>
        <div class=""trial-counter"">Trial 103 / 120</div>
        <div class=""trial-screen"">
            <div class=""center-image-container"">
                <img src=""images/high_pos/Fireworks 6.jpg"" class=""center-image"">
            </div>
            <div class=""arrow-subtle"" style=""left: 92%; top: 85%; transform: translate(-50%, -50%);"">
                ←
            </div>
        </div>
    ","ArrowLeft","images/high_pos/Fireworks 6.jpg","high_arousal_positive","←","right-bottom","←","1"
"","","","","","html-keyboard-response","96","2.1.0","104821","","null","
            <div class=""trial-screen"">
                <div class=""fixation-modern"">+</div>
            </div>
        ","null","","","","","",""
"","","","","","html-keyboard-response","97","2.1.0","105685","","863","
        <div class=""progress-bar"" style=""width: 17.5%;""></div>
        <div class=""trial-counter"">Trial 21 / 120</div>
        <div class=""trial-screen"">
            <div class=""center-image-container"">
                <img src=""images/neutral/Cotton swabs 3.jpg"" class=""center-image"">
            </div>
            <div class=""arrow-subtle"" style=""left: 8%; top: 25%; transform: translate(-50%, -50%);"">
                →
            </div>
        </div>
    ","ArrowRight","images/neutral/Cotton swabs 3.jpg","neutral","→","left-upper","→","1"
"","","","","","html-keyboard-response","98","2.1.0","106498","","null","
            <div class=""trial-screen"">
                <div class=""fixation-modern"">+</div>
            </div>
        ","null","","","","","",""
"","","","","","html-keyboard-response","99","2.1.0","108949","","2451","
        <div class=""progress-bar"" style=""width: 60%;""></div>
        <div class=""trial-counter"">Trial 72 / 120</div>
        <div class=""trial-screen"">
            <div class=""center-image-container"">
                <img src=""images/high_neg/War 8.jpg"" class=""center-image"">
            </div>
            <div class=""arrow-subtle"" style=""left: 92%; top: 85%; transform: translate(-50%, -50%);"">
                ↓
            </div>
        </div>
    ","ArrowDown","images/high_neg/War 8.jpg","high_arousal_negative","↓","right-bottom","↓","1"
"","","","","","html-keyboard-response","100","2.1.0","109751","","null","
            <div class=""trial-screen"">
                <div class=""fixation-modern"">+</div>
            </div>
        ","null","","","","","",""
"","","","","","html-keyboard-response","101","2.1.0","111689","","1937","
        <div class=""progress-bar"" style=""width: 45%;""></div>
        <div class=""trial-counter"">Trial 54 / 120</div>
        <div class=""trial-screen"">
            <div class=""center-image-container"">
                <img src=""images/high_neg/Fire 9.jpg"" class=""center-image"">
            </div>
            <div class=""arrow-subtle"" style=""left: 8%; top: 75%; transform: translate(-50%, -50%);"">
                ↓
            </div>
        </div>
    ","ArrowDown","images/high_neg/Fire 9.jpg","high_arousal_negative","↓","left-bottom-upper","↓","1"
"","","","","","html-keyboard-response","102","2.1.0","112499","","null","
            <div class=""trial-screen"">
                <div class=""fixation-modern"">+</div>
            </div>
        ","null","","","","","",""
"","","","","","html-keyboard-response","103","2.1.0","113303","","804","
        <div class=""progress-bar"" style=""width: 13.333333333333334%;""></div>
        <div class=""trial-counter"">Trial 16 / 120</div>
        <div class=""trial-screen"">
            <div class=""center-image-container"">
                <img src=""images/neutral/Office supplies 2.jpg"" class=""center-image"">
            </div>
            <div class=""arrow-subtle"" style=""left: 92%; top: 25%; transform: translate(-50%, -50%);"">
                →
            </div>
        </div>
    ","ArrowRight","images/neutral/Office supplies 2.jpg","neutral","→","right-upper","→","1"
"","","","","","html-keyboard-response","104","2.1.0","114113","","null","
            <div class=""trial-screen"">
                <div class=""fixation-modern"">+</div>
            </div>
        ","null","","","","","",""
"","","","","","html-keyboard-response","105","2.1.0","114854","","741","
        <div class=""progress-bar"" style=""width: 29.166666666666668%;""></div>
        <div class=""trial-counter"">Trial 35 / 120</div>
        <div class=""trial-screen"">
            <div class=""center-image-container"">
                <img src=""images/neutral/Wall 3.jpg"" class=""center-image"">
            </div>
            <div class=""arrow-subtle"" style=""left: 92%; top: 45%; transform: translate(-50%, -50%);"">
                ←
            </div>
        </div>
    ","ArrowLeft","images/neutral/Wall 3.jpg","neutral","←","right-mid","←","1"
"","","","","","html-keyboard-response","106","2.1.0","115667","","null","
            <div class=""trial-screen"">
                <div class=""fixation-modern"">+</div>
            </div>
        ","null","","","","","",""
"","","","","","html-keyboard-response","107","2.1.0","117220","","1552","
        <div class=""progress-bar"" style=""width: 72.5%;""></div>
        <div class=""trial-counter"">Trial 87 / 120</div>
        <div class=""trial-screen"">
            <div class=""center-image-container"">
                <img src=""images/high_pos/Fireworks 6.jpg"" class=""center-image"">
            </div>
            <div class=""arrow-subtle"" style=""left: 8%; top: 55%; transform: translate(-50%, -50%);"">
                ↑
            </div>
        </div>
    ","ArrowUp","images/high_pos/Fireworks 6.jpg","high_arousal_positive","↑","left-mid-lower","↑","1"
"","","","","","html-keyboard-response","108","2.1.0","118036","","null","
            <div class=""trial-screen"">
                <div class=""fixation-modern"">+</div>
            </div>
        ","null","","","","","",""
"","","","","","html-keyboard-response","109","2.1.0","119419","","1384","
        <div class=""progress-bar"" style=""width: 31.666666666666664%;""></div>
        <div class=""trial-counter"">Trial 38 / 120</div>
        <div class=""trial-screen"">
            <div class=""center-image-container"">
                <img src=""images/neutral/Paper 3.jpg"" class=""center-image"">
            </div>
            <div class=""arrow-subtle"" style=""left: 92%; top: 45%; transform: translate(-50%, -50%);"">
                ↓
            </div>
        </div>
    ","ArrowDown","images/neutral/Paper 3.jpg","neutral","↓","right-mid","↓","1"
"","","","","","html-keyboard-response","110","2.1.0","120223","","null","
            <div class=""trial-screen"">
                <div class=""fixation-modern"">+</div>
            </div>
        ","null","","","","","",""
"","","","","","html-keyboard-response","111","2.1.0","120850","","626","
        <div class=""progress-bar"" style=""width: 34.166666666666664%;""></div>
        <div class=""trial-counter"">Trial 41 / 120</div>
        <div class=""trial-screen"">
            <div class=""center-image-container"">
                <img src=""images/high_neg/Injury 4.jpg"" class=""center-image"">
            </div>
            <div class=""arrow-subtle"" style=""left: 92%; top: 15%; transform: translate(-50%, -50%);"">
                ↓
            </div>
        </div>
    ","ArrowDown","images/high_neg/Injury 4.jpg","high_arousal_negative","↓","right-top","↓","1"
"","","","","","html-keyboard-response","112","2.1.0","121653","","null","
            <div class=""trial-screen"">
                <div class=""fixation-modern"">+</div>
            </div>
        ","null","","","","","",""
"","","","","","html-keyboard-response","113","2.1.0","122767","","1114","
        <div class=""progress-bar"" style=""width: 28.333333333333332%;""></div>
        <div class=""trial-counter"">Trial 34 / 120</div>
        <div class=""trial-screen"">
            <div class=""center-image-container"">
                <img src=""images/neutral/Wall 1.jpg"" class=""center-image"">
            </div>
            <div class=""arrow-subtle"" style=""left: 92%; top: 85%; transform: translate(-50%, -50%);"">
                ↑
            </div>
        </div>
    ","ArrowUp","images/neutral/Wall 1.jpg","neutral","↑","right-bottom","↑","1"
"","","","","","html-keyboard-response","114","2.1.0","123659","","null","
            <div class=""trial-screen"">
                <div class=""fixation-modern"">+</div>
            </div>
        ","null","","","","","",""
"","","","","","html-keyboard-response","115","2.1.0","124367","","708","
        <div class=""progress-bar"" style=""width: 6.666666666666667%;""></div>
        <div class=""trial-counter"">Trial 8 / 120</div>
        <div class=""trial-screen"">
            <div class=""center-image-container"">
                <img src=""images/neutral/Office supplies 2.jpg"" class=""center-image"">
            </div>
            <div class=""arrow-subtle"" style=""left: 8%; top: 85%; transform: translate(-50%, -50%);"">
                →
            </div>
        </div>
    ","ArrowRight","images/neutral/Office supplies 2.jpg","neutral","→","left-bottom","→","1"
"","","","","","html-keyboard-response","116","2.1.0","125169","","null","
            <div class=""trial-screen"">
                <div class=""fixation-modern"">+</div>
            </div>
        ","null","","","","","",""
"","","","","","html-keyboard-response","117","2.1.0","125993","","824","
        <div class=""progress-bar"" style=""width: 19.166666666666668%;""></div>
        <div class=""trial-counter"">Trial 23 / 120</div>
        <div class=""trial-screen"">
            <div class=""center-image-container"">
                <img src=""images/neutral/Paperclips 3.jpg"" class=""center-image"">
            </div>
            <div class=""arrow-subtle"" style=""left: 92%; top: 45%; transform: translate(-50%, -50%);"">
                ↑
            </div>
        </div>
    ","ArrowUp","images/neutral/Paperclips 3.jpg","neutral","↑","right-mid","↑","1"
"","","","","","html-keyboard-response","118","2.1.0","126845","","null","
            <div class=""trial-screen"">
                <div class=""fixation-modern"">+</div>
            </div>
        ","null","","","","","",""
"","","","","","html-keyboard-response","119","2.1.0","128303","","1457","
        <div class=""progress-bar"" style=""width: 47.5%;""></div>
        <div class=""trial-counter"">Trial 57 / 120</div>
        <div class=""trial-screen"">
            <div class=""center-image-container"">
                <img src=""images/high_neg/Injury 4.jpg"" class=""center-image"">
            </div>
            <div class=""arrow-subtle"" style=""left: 8%; top: 25%; transform: translate(-50%, -50%);"">
                →
            </div>
        </div>
    ","ArrowRight","images/high_neg/Injury 4.jpg","high_arousal_negative","→","left-upper","→","1"
"","","","","","html-keyboard-response","120","2.1.0","129115","","null","
            <div class=""trial-screen"">
                <div class=""fixation-modern"">+</div>
            </div>
        ","null","","","","","",""
"","","","","","html-keyboard-response","121","2.1.0","130589","","1472","
        <div class=""progress-bar"" style=""width: 38.333333333333336%;""></div>
        <div class=""trial-counter"">Trial 46 / 120</div>
        <div class=""trial-screen"">
            <div class=""center-image-container"">
                <img src=""images/high_neg/Fire 9.jpg"" class=""center-image"">
            </div>
            <div class=""arrow-subtle"" style=""left: 92%; top: 45%; transform: translate(-50%, -50%);"">
                ↓
            </div>
        </div>
    ","ArrowDown","images/high_neg/Fire 9.jpg","high_arousal_negative","↓","right-mid","↓","1"
"","","","","","html-keyboard-response","122","2.1.0","131398","","null","
            <div class=""trial-screen"">
                <div class=""fixation-modern"">+</div>
            </div>
        ","null","","","","","",""
"","","","","","html-keyboard-response","123","2.1.0","132101","","702","
        <div class=""progress-bar"" style=""width: 0.8333333333333334%;""></div>
        <div class=""trial-counter"">Trial 1 / 120</div>
        <div class=""trial-screen"">
            <div class=""center-image-container"">
                <img src=""images/neutral/Wall 2.jpg"" class=""center-image"">
            </div>
            <div class=""arrow-subtle"" style=""left: 92%; top: 55%; transform: translate(-50%, -50%);"">
                →
            </div>
        </div>
    ","ArrowRight","images/neutral/Wall 2.jpg","neutral","→","right-mid-lower","→","1"
"","","","","","html-keyboard-response","124","2.1.0","132916","","null","
            <div class=""trial-screen"">
                <div class=""fixation-modern"">+</div>
            </div>
        ","null","","","","","",""
"","","","","","html-keyboard-response","125","2.1.0","133793","","874","
        <div class=""progress-bar"" style=""width: 18.333333333333332%;""></div>
        <div class=""trial-counter"">Trial 22 / 120</div>
        <div class=""trial-screen"">
            <div class=""center-image-container"">
                <img src=""images/neutral/Paper 3.jpg"" class=""center-image"">
            </div>
            <div class=""arrow-subtle"" style=""left: 8%; top: 55%; transform: translate(-50%, -50%);"">
                ←
            </div>
        </div>
    ","ArrowLeft","images/neutral/Paper 3.jpg","neutral","←","left-mid-lower","←","1"
"","","","","","html-keyboard-response","126","2.1.0","134596","","null","
            <div class=""trial-screen"">
                <div class=""fixation-modern"">+</div>
            </div>
        ","null","","","","","",""
"","","","","","html-keyboard-response","127","2.1.0","135585","","989","
        <div class=""progress-bar"" style=""width: 56.666666666666664%;""></div>
        <div class=""trial-counter"">Trial 68 / 120</div>
        <div class=""trial-screen"">
            <div class=""center-image-container"">
                <img src=""images/high_neg/Fire 5.jpg"" class=""center-image"">
            </div>
            <div class=""arrow-subtle"" style=""left: 92%; top: 15%; transform: translate(-50%, -50%);"">
                ↑
            </div>
        </div>
    ","ArrowUp","images/high_neg/Fire 5.jpg","high_arousal_negative","↑","right-top","↑","1"
"","","","","","html-keyboard-response","128","2.1.0","136397","","null","
            <div class=""trial-screen"">
                <div class=""fixation-modern"">+</div>
            </div>
        ","null","","","","","",""
"","","","","","html-keyboard-response","129","2.1.0","137026","","628","
        <div class=""progress-bar"" style=""width: 1.6666666666666667%;""></div>
        <div class=""trial-counter"">Trial 2 / 120</div>
        <div class=""trial-screen"">
            <div class=""center-image-container"">
                <img src=""images/neutral/Wall 1.jpg"" class=""center-image"">
            </div>
            <div class=""arrow-subtle"" style=""left: 8%; top: 65%; transform: translate(-50%, -50%);"">
                →
            </div>
        </div>
    ","ArrowRight","images/neutral/Wall 1.jpg","neutral","→","left-lower","→","1"
"","","","","","html-keyboard-response","130","2.1.0","137829","","null","
            <div class=""trial-screen"">
                <div class=""fixation-modern"">+</div>
            </div>
        ","null","","","","","",""
"","","","","","html-keyboard-response","131","2.1.0","138970","","1141","
        <div class=""progress-bar"" style=""width: 36.666666666666664%;""></div>
        <div class=""trial-counter"">Trial 44 / 120</div>
        <div class=""trial-screen"">
            <div class=""center-image-container"">
                <img src=""images/high_neg/Fire 5.jpg"" class=""center-image"">
            </div>
            <div class=""arrow-subtle"" style=""left: 92%; top: 25%; transform: translate(-50%, -50%);"">
                ↓
            </div>
        </div>
    ","ArrowDown","images/high_neg/Fire 5.jpg","high_arousal_negative","↓","right-upper","↓","1"
"","","","","","html-keyboard-response","132","2.1.0","139829","","null","
            <div class=""trial-screen"">
                <div class=""fixation-modern"">+</div>
            </div>
        ","null","","","","","",""
"","","","","","html-keyboard-response","133","2.1.0","141190","","1360","
        <div class=""progress-bar"" style=""width: 63.33333333333333%;""></div>
        <div class=""trial-counter"">Trial 76 / 120</div>
        <div class=""trial-screen"">
            <div class=""center-image-container"">
                <img src=""images/high_neg/Fire 5.jpg"" class=""center-image"">
            </div>
            <div class=""arrow-subtle"" style=""left: 92%; top: 75%; transform: translate(-50%, -50%);"">
                ↑
            </div>
        </div>
    ","ArrowUp","images/high_neg/Fire 5.jpg","high_arousal_negative","↑","right-bottom-upper","↑","1"
"","","","","","html-keyboard-response","134","2.1.0","142000","","null","
            <div class=""trial-screen"">
                <div class=""fixation-modern"">+</div>
            </div>
        ","null","","","","","",""
"","","","","","html-keyboard-response","135","2.1.0","142608","","607","
        <div class=""progress-bar"" style=""width: 74.16666666666667%;""></div>
        <div class=""trial-counter"">Trial 89 / 120</div>
        <div class=""trial-screen"">
            <div class=""center-image-container"">
                <img src=""images/high_pos/Nude couple 5.jpg"" class=""center-image"">
            </div>
            <div class=""arrow-subtle"" style=""left: 92%; top: 85%; transform: translate(-50%, -50%);"">
                →
            </div>
        </div>
    ","ArrowRight","images/high_pos/Nude couple 5.jpg","high_arousal_positive","→","right-bottom","→","1"
"","","","","","html-keyboard-response","136","2.1.0","143423","","null","
            <div class=""trial-screen"">
                <div class=""fixation-modern"">+</div>
            </div>
        ","null","","","","","",""
"","","","","","html-keyboard-response","137","2.1.0","144258","","835","
        <div class=""progress-bar"" style=""width: 77.5%;""></div>
        <div class=""trial-counter"">Trial 93 / 120</div>
        <div class=""trial-screen"">
            <div class=""center-image-container"">
                <img src=""images/high_pos/Dog 18.jpg"" class=""center-image"">
            </div>
            <div class=""arrow-subtle"" style=""left: 92%; top: 75%; transform: translate(-50%, -50%);"">
                →
            </div>
        </div>
    ","ArrowRight","images/high_pos/Dog 18.jpg","high_arousal_positive","→","right-bottom-upper","→","1"
"","","","","","html-keyboard-response","138","2.1.0","145065","","null","
            <div class=""trial-screen"">
                <div class=""fixation-modern"">+</div>
            </div>
        ","null","","","","","",""
"","","","","","html-keyboard-response","139","2.1.0","145741","","676","
        <div class=""progress-bar"" style=""width: 81.66666666666667%;""></div>
        <div class=""trial-counter"">Trial 98 / 120</div>
        <div class=""trial-screen"">
            <div class=""center-image-container"">
                <img src=""images/high_pos/Dog 6.jpg"" class=""center-image"">
            </div>
            <div class=""arrow-subtle"" style=""left: 8%; top: 35%; transform: translate(-50%, -50%);"">
                ↑
            </div>
        </div>
    ","ArrowUp","images/high_pos/Dog 6.jpg","high_arousal_positive","↑","left-upper-mid","↑","1"
"","","","","","html-keyboard-response","140","2.1.0","146544","","null","
            <div class=""trial-screen"">
                <div class=""fixation-modern"">+</div>
            </div>
        ","null","","","","","",""
"","","","","","html-keyboard-response","141","2.1.0","147672","","1126","
        <div class=""progress-bar"" style=""width: 55.833333333333336%;""></div>
        <div class=""trial-counter"">Trial 67 / 120</div>
        <div class=""trial-screen"">
            <div class=""center-image-container"">
                <img src=""images/high_neg/Fire 11.jpg"" class=""center-image"">
            </div>
            <div class=""arrow-subtle"" style=""left: 92%; top: 45%; transform: translate(-50%, -50%);"">
                ↓
            </div>
        </div>
    ","ArrowDown","images/high_neg/Fire 11.jpg","high_arousal_negative","↓","right-mid","↓","1"
"","","","","","html-keyboard-response","142","2.1.0","148488","","null","
            <div class=""trial-screen"">
                <div class=""fixation-modern"">+</div>
            </div>
        ","null","","","","","",""
"","","","","","html-keyboard-response","143","2.1.0","149463","","974","
        <div class=""progress-bar"" style=""width: 40%;""></div>
        <div class=""trial-counter"">Trial 48 / 120</div>
        <div class=""trial-screen"">
            <div class=""center-image-container"">
                <img src=""images/high_neg/War 8.jpg"" class=""center-image"">
            </div>
            <div class=""arrow-subtle"" style=""left: 92%; top: 85%; transform: translate(-50%, -50%);"">
                →
            </div>
        </div>
    ","ArrowRight","images/high_neg/War 8.jpg","high_arousal_negative","→","right-bottom","→","1"
"","","","","","html-keyboard-response","144","2.1.0","150268","","null","
            <div class=""trial-screen"">
                <div class=""fixation-modern"">+</div>
            </div>
        ","null","","","","","",""
"","","","","","html-keyboard-response","145","2.1.0","151632","","1364","
        <div class=""progress-bar"" style=""width: 100%;""></div>
        <div class=""trial-counter"">Trial 120 / 120</div>
        <div class=""trial-screen"">
            <div class=""center-image-container"">
                <img src=""images/high_pos/Beach 1.jpg"" class=""center-image"">
            </div>
            <div class=""arrow-subtle"" style=""left: 8%; top: 35%; transform: translate(-50%, -50%);"">
                ←
            </div>
        </div>
    ","ArrowLeft","images/high_pos/Beach 1.jpg","high_arousal_positive","←","left-upper-mid","←","1"
"","","","","","html-keyboard-response","146","2.1.0","152433","","null","
            <div class=""trial-screen"">
                <div class=""fixation-modern"">+</div>
            </div>
        ","null","","","","","",""
"","","","","","html-keyboard-response","147","2.1.0","153673","","1240","
        <div class=""progress-bar"" style=""width: 32.5%;""></div>
        <div class=""trial-counter"">Trial 39 / 120</div>
        <div class=""trial-screen"">
            <div class=""center-image-container"">
                <img src=""images/neutral/Paperclips 3.jpg"" class=""center-image"">
            </div>
            <div class=""arrow-subtle"" style=""left: 8%; top: 65%; transform: translate(-50%, -50%);"">
                ←
            </div>
        </div>
    ","ArrowLeft","images/neutral/Paperclips 3.jpg","neutral","←","left-lower","←","1"
"","","","","","html-keyboard-response","148","2.1.0","154481","","null","
            <div class=""trial-screen"">
                <div class=""fixation-modern"">+</div>
            </div>
        ","null","","","","","",""
"","","","","","html-keyboard-response","149","2.1.0","155130","","649","
        <div class=""progress-bar"" style=""width: 5.833333333333333%;""></div>
        <div class=""trial-counter"">Trial 7 / 120</div>
        <div class=""trial-screen"">
            <div class=""center-image-container"">
                <img src=""images/neutral/Paperclips 3.jpg"" class=""center-image"">
            </div>
            <div class=""arrow-subtle"" style=""left: 92%; top: 25%; transform: translate(-50%, -50%);"">
                ↑
            </div>
        </div>
    ","ArrowUp","images/neutral/Paperclips 3.jpg","neutral","↑","right-upper","↑","1"
"","","","","","html-keyboard-response","150","2.1.0","155938","","null","
            <div class=""trial-screen"">
                <div class=""fixation-modern"">+</div>
            </div>
        ","null","","","","","",""
"","","","","","html-keyboard-response","151","2.1.0","156743","","805","
        <div class=""progress-bar"" style=""width: 60.83333333333333%;""></div>
        <div class=""trial-counter"">Trial 73 / 120</div>
        <div class=""trial-screen"">
            <div class=""center-image-container"">
                <img src=""images/high_neg/Injury 4.jpg"" class=""center-image"">
            </div>
            <div class=""arrow-subtle"" style=""left: 92%; top: 85%; transform: translate(-50%, -50%);"">
                →
            </div>
        </div>
    ","ArrowRight","images/high_neg/Injury 4.jpg","high_arousal_negative","→","right-bottom","→","1"
"","","","","","html-keyboard-response","152","2.1.0","157555","","null","
            <div class=""trial-screen"">
                <div class=""fixation-modern"">+</div>
            </div>
        ","null","","","","","",""
"","","","","","html-keyboard-response","153","2.1.0","158449","","894","
        <div class=""progress-bar"" style=""width: 93.33333333333333%;""></div>
        <div class=""trial-counter"">Trial 112 / 120</div>
        <div class=""trial-screen"">
            <div class=""center-image-container"">
                <img src=""images/high_pos/Beach 1.jpg"" class=""center-image"">
            </div>
            <div class=""arrow-subtle"" style=""left: 92%; top: 25%; transform: translate(-50%, -50%);"">
                →
            </div>
        </div>
    ","ArrowRight","images/high_pos/Beach 1.jpg","high_arousal_positive","→","right-upper","→","1"
"","","","","","html-keyboard-response","154","2.1.0","159259","","null","
            <div class=""trial-screen"">
                <div class=""fixation-modern"">+</div>
            </div>
        ","null","","","","","",""
"","","","","","html-keyboard-response","155","2.1.0","160916","","1656","
        <div class=""progress-bar"" style=""width: 59.166666666666664%;""></div>
        <div class=""trial-counter"">Trial 71 / 120</div>
        <div class=""trial-screen"">
            <div class=""center-image-container"">
                <img src=""images/high_neg/Miserable pose 3.jpg"" class=""center-image"">
            </div>
            <div class=""arrow-subtle"" style=""left: 8%; top: 75%; transform: translate(-50%, -50%);"">
                ←
            </div>
        </div>
    ","ArrowLeft","images/high_neg/Miserable pose 3.jpg","high_arousal_negative","←","left-bottom-upper","←","1"
"","","","","","html-keyboard-response","156","2.1.0","161730","","null","
            <div class=""trial-screen"">
                <div class=""fixation-modern"">+</div>
            </div>
        ","null","","","","","",""
"","","","","","html-keyboard-response","157","2.1.0","163004","","1273","
        <div class=""progress-bar"" style=""width: 26.666666666666668%;""></div>
        <div class=""trial-counter"">Trial 32 / 120</div>
        <div class=""trial-screen"">
            <div class=""center-image-container"">
                <img src=""images/neutral/Office supplies 2.jpg"" class=""center-image"">
            </div>
            <div class=""arrow-subtle"" style=""left: 92%; top: 25%; transform: translate(-50%, -50%);"">
                ←
            </div>
        </div>
    ","ArrowLeft","images/neutral/Office supplies 2.jpg","neutral","←","right-upper","←","1"
"","","","","","html-keyboard-response","158","2.1.0","163816","","null","
            <div class=""trial-screen"">
                <div class=""fixation-modern"">+</div>
            </div>
        ","null","","","","","",""
"","","","","","html-keyboard-response","159","2.1.0","164724","","906","
        <div class=""progress-bar"" style=""width: 99.16666666666667%;""></div>
        <div class=""trial-counter"">Trial 119 / 120</div>
        <div class=""trial-screen"">
            <div class=""center-image-container"">
                <img src=""images/high_pos/Fireworks 6.jpg"" class=""center-image"">
            </div>
            <div class=""arrow-subtle"" style=""left: 8%; top: 85%; transform: translate(-50%, -50%);"">
                ↑
            </div>
        </div>
    ","ArrowUp","images/high_pos/Fireworks 6.jpg","high_arousal_positive","↑","left-bottom","↑","1"
"","","","","","html-keyboard-response","160","2.1.0","165528","","null","
            <div class=""trial-screen"">
                <div class=""fixation-modern"">+</div>
            </div>
        ","null","","","","","",""
"","","","","","html-keyboard-response","161","2.1.0","166249","","720","
        <div class=""progress-bar"" style=""width: 15%;""></div>
        <div class=""trial-counter"">Trial 18 / 120</div>
        <div class=""trial-screen"">
            <div class=""center-image-container"">
                <img src=""images/neutral/Wall 1.jpg"" class=""center-image"">
            </div>
            <div class=""arrow-subtle"" style=""left: 92%; top: 65%; transform: translate(-50%, -50%);"">
                ←
            </div>
        </div>
    ","ArrowLeft","images/neutral/Wall 1.jpg","neutral","←","right-lower","←","1"
"","","","","","html-keyboard-response","162","2.1.0","167061","","null","
            <div class=""trial-screen"">
                <div class=""fixation-modern"">+</div>
            </div>
        ","null","","","","","",""
"","","","","","html-keyboard-response","163","2.1.0","167819","","757","
        <div class=""progress-bar"" style=""width: 80.83333333333333%;""></div>
        <div class=""trial-counter"">Trial 97 / 120</div>
        <div class=""trial-screen"">
            <div class=""center-image-container"">
                <img src=""images/high_pos/Nude couple 5.jpg"" class=""center-image"">
            </div>
            <div class=""arrow-subtle"" style=""left: 8%; top: 65%; transform: translate(-50%, -50%);"">
                →
            </div>
        </div>
    ","ArrowRight","images/high_pos/Nude couple 5.jpg","high_arousal_positive","→","left-lower","→","1"
"","","","","","html-keyboard-response","164","2.1.0","168629","","null","
            <div class=""trial-screen"">
                <div class=""fixation-modern"">+</div>
            </div>
        ","null","","","","","",""
"","","","","","html-keyboard-response","165","2.1.0","169301","","670","
        <div class=""progress-bar"" style=""width: 10%;""></div>
        <div class=""trial-counter"">Trial 12 / 120</div>
        <div class=""trial-screen"">
            <div class=""center-image-container"">
                <img src=""images/neutral/Bricks 1.jpg"" class=""center-image"">
            </div>
            <div class=""arrow-subtle"" style=""left: 92%; top: 65%; transform: translate(-50%, -50%);"">
                ←
            </div>
        </div>
    ","ArrowLeft","images/neutral/Bricks 1.jpg","neutral","←","right-lower","←","1"
"","","","","","html-keyboard-response","166","2.1.0","170109","","null","
            <div class=""trial-screen"">
                <div class=""fixation-modern"">+</div>
            </div>
        ","null","","","","","",""
"","","","","","html-keyboard-response","167","2.1.0","171060","","950","
        <div class=""progress-bar"" style=""width: 66.66666666666666%;""></div>
        <div class=""trial-counter"">Trial 80 / 120</div>
        <div class=""trial-screen"">
            <div class=""center-image-container"">
                <img src=""images/high_neg/War 8.jpg"" class=""center-image"">
            </div>
            <div class=""arrow-subtle"" style=""left: 8%; top: 15%; transform: translate(-50%, -50%);"">
                →
            </div>
        </div>
    ","ArrowRight","images/high_neg/War 8.jpg","high_arousal_negative","→","left-top","→","1"
"","","","","","html-keyboard-response","168","2.1.0","171905","","null","
            <div class=""trial-screen"">
                <div class=""fixation-modern"">+</div>
            </div>
        ","null","","","","","",""
"","","","","","html-keyboard-response","169","2.1.0","172583","","679","
        <div class=""progress-bar"" style=""width: 42.5%;""></div>
        <div class=""trial-counter"">Trial 51 / 120</div>
        <div class=""trial-screen"">
            <div class=""center-image-container"">
                <img src=""images/high_neg/Fire 11.jpg"" class=""center-image"">
            </div>
            <div class=""arrow-subtle"" style=""left: 8%; top: 55%; transform: translate(-50%, -50%);"">
                ↑
            </div>
        </div>
    ","ArrowUp","images/high_neg/Fire 11.jpg","high_arousal_negative","↑","left-mid-lower","↑","1"
"","","","","","html-keyboard-response","170","2.1.0","173394","","null","
            <div class=""trial-screen"">
                <div class=""fixation-modern"">+</div>
            </div>
        ","null","","","","","",""
"","","","","","html-keyboard-response","171","2.1.0","174301","","907","
        <div class=""progress-bar"" style=""width: 85%;""></div>
        <div class=""trial-counter"">Trial 102 / 120</div>
        <div class=""trial-screen"">
            <div class=""center-image-container"">
                <img src=""images/high_pos/Cat 5.jpg"" class=""center-image"">
            </div>
            <div class=""arrow-subtle"" style=""left: 8%; top: 55%; transform: translate(-50%, -50%);"">
                ↓
            </div>
        </div>
    ","ArrowDown","images/high_pos/Cat 5.jpg","high_arousal_positive","↓","left-mid-lower","↓","1"
"","","","","","html-keyboard-response","172","2.1.0","175105","","null","
            <div class=""trial-screen"">
                <div class=""fixation-modern"">+</div>
            </div>
        ","null","","","","","",""
"","","","","","html-keyboard-response","173","2.1.0","175921","","815","
        <div class=""progress-bar"" style=""width: 41.66666666666667%;""></div>
        <div class=""trial-counter"">Trial 50 / 120</div>
        <div class=""trial-screen"">
            <div class=""center-image-container"">
                <img src=""images/high_neg/Explosion 5.jpg"" class=""center-image"">
            </div>
            <div class=""arrow-subtle"" style=""left: 8%; top: 65%; transform: translate(-50%, -50%);"">
                ←
            </div>
        </div>
    ","ArrowLeft","images/high_neg/Explosion 5.jpg","high_arousal_negative","←","left-lower","←","1"
"","","","","","html-keyboard-response","174","2.1.0","176731","","null","
            <div class=""trial-screen"">
                <div class=""fixation-modern"">+</div>
            </div>
        ","null","","","","","",""
"","","","","","html-keyboard-response","175","2.1.0","177655","","922","
        <div class=""progress-bar"" style=""width: 61.66666666666667%;""></div>
        <div class=""trial-counter"">Trial 74 / 120</div>
        <div class=""trial-screen"">
            <div class=""center-image-container"">
                <img src=""images/high_neg/Explosion 5.jpg"" class=""center-image"">
            </div>
            <div class=""arrow-subtle"" style=""left: 8%; top: 25%; transform: translate(-50%, -50%);"">
                ←
            </div>
        </div>
    ","ArrowLeft","images/high_neg/Explosion 5.jpg","high_arousal_negative","←","left-upper","←","1"
"","","","","","html-keyboard-response","176","2.1.0","178456","","null","
            <div class=""trial-screen"">
                <div class=""fixation-modern"">+</div>
            </div>
        ","null","","","","","",""
"","","","","","html-keyboard-response","177","2.1.0","179131","","674","
        <div class=""progress-bar"" style=""width: 30%;""></div>
        <div class=""trial-counter"">Trial 36 / 120</div>
        <div class=""trial-screen"">
            <div class=""center-image-container"">
                <img src=""images/neutral/Bricks 1.jpg"" class=""center-image"">
            </div>
            <div class=""arrow-subtle"" style=""left: 8%; top: 65%; transform: translate(-50%, -50%);"">
                ↓
            </div>
        </div>
    ","ArrowDown","images/neutral/Bricks 1.jpg","neutral","↓","left-lower","↓","1"
"","","","","","html-keyboard-response","178","2.1.0","179941","","null","
            <div class=""trial-screen"">
                <div class=""fixation-modern"">+</div>
            </div>
        ","null","","","","","",""
"","","","","","html-keyboard-response","179","2.1.0","180600","","658","
        <div class=""progress-bar"" style=""width: 9.166666666666666%;""></div>
        <div class=""trial-counter"">Trial 11 / 120</div>
        <div class=""trial-screen"">
            <div class=""center-image-container"">
                <img src=""images/neutral/Wall 3.jpg"" class=""center-image"">
            </div>
            <div class=""arrow-subtle"" style=""left: 8%; top: 45%; transform: translate(-50%, -50%);"">
                ↑
            </div>
        </div>
    ","ArrowUp","images/neutral/Wall 3.jpg","neutral","↑","left-mid","↑","1"
"","","","","","html-keyboard-response","180","2.1.0","181414","","null","
            <div class=""trial-screen"">
                <div class=""fixation-modern"">+</div>
            </div>
        ","null","","","","","",""
"","","","","","html-keyboard-response","181","2.1.0","182058","","643","
        <div class=""progress-bar"" style=""width: 69.16666666666667%;""></div>
        <div class=""trial-counter"">Trial 83 / 120</div>
        <div class=""trial-screen"">
            <div class=""center-image-container"">
                <img src=""images/high_pos/Fireworks 2.jpg"" class=""center-image"">
            </div>
            <div class=""arrow-subtle"" style=""left: 8%; top: 45%; transform: translate(-50%, -50%);"">
                ←
            </div>
        </div>
    ","ArrowLeft","images/high_pos/Fireworks 2.jpg","high_arousal_positive","←","left-mid","←","1"
"","","","","","html-keyboard-response","182","2.1.0","182858","","null","
            <div class=""trial-screen"">
                <div class=""fixation-modern"">+</div>
            </div>
        ","null","","","","","",""
"","","","","","html-keyboard-response","183","2.1.0","184234","","1374","
        <div class=""progress-bar"" style=""width: 40.833333333333336%;""></div>
        <div class=""trial-counter"">Trial 49 / 120</div>
        <div class=""trial-screen"">
            <div class=""center-image-container"">
                <img src=""images/high_neg/Injury 4.jpg"" class=""center-image"">
            </div>
            <div class=""arrow-subtle"" style=""left: 8%; top: 45%; transform: translate(-50%, -50%);"">
                ↓
            </div>
        </div>
    ","ArrowDown","images/high_neg/Injury 4.jpg","high_arousal_negative","↓","left-mid","↓","1"
"","","","","","html-keyboard-response","184","2.1.0","185046","","null","
            <div class=""trial-screen"">
                <div class=""fixation-modern"">+</div>
            </div>
        ","null","","","","","",""
"","","","","","html-keyboard-response","185","2.1.0","185996","","948","
        <div class=""progress-bar"" style=""width: 82.5%;""></div>
        <div class=""trial-counter"">Trial 99 / 120</div>
        <div class=""trial-screen"">
            <div class=""center-image-container"">
                <img src=""images/high_pos/Fireworks 2.jpg"" class=""center-image"">
            </div>
            <div class=""arrow-subtle"" style=""left: 92%; top: 65%; transform: translate(-50%, -50%);"">
                →
            </div>
        </div>
    ","ArrowRight","images/high_pos/Fireworks 2.jpg","high_arousal_positive","→","right-lower","→","1"
"","","","","","html-keyboard-response","186","2.1.0","186800","","null","
            <div class=""trial-screen"">
                <div class=""fixation-modern"">+</div>
            </div>
        ","null","","","","","",""
"","","","","","html-keyboard-response","187","2.1.0","188173","","1373","
        <div class=""progress-bar"" style=""width: 79.16666666666666%;""></div>
        <div class=""trial-counter"">Trial 95 / 120</div>
        <div class=""trial-screen"">
            <div class=""center-image-container"">
                <img src=""images/high_pos/Fireworks 6.jpg"" class=""center-image"">
            </div>
            <div class=""arrow-subtle"" style=""left: 8%; top: 15%; transform: translate(-50%, -50%);"">
                →
            </div>
        </div>
    ","ArrowRight","images/high_pos/Fireworks 6.jpg","high_arousal_positive","→","left-top","→","1"
"","","","","","html-keyboard-response","188","2.1.0","188979","","null","
            <div class=""trial-screen"">
                <div class=""fixation-modern"">+</div>
            </div>
        ","null","","","","","",""
"","","","","","html-keyboard-response","189","2.1.0","189821","","840","
        <div class=""progress-bar"" style=""width: 39.166666666666664%;""></div>
        <div class=""trial-counter"">Trial 47 / 120</div>
        <div class=""trial-screen"">
            <div class=""center-image-container"">
                <img src=""images/high_neg/Miserable pose 3.jpg"" class=""center-image"">
            </div>
            <div class=""arrow-subtle"" style=""left: 92%; top: 35%; transform: translate(-50%, -50%);"">
                ↑
            </div>
        </div>
    ","ArrowUp","images/high_neg/Miserable pose 3.jpg","high_arousal_negative","↑","right-upper-mid","↑","1"
"","","","","","html-keyboard-response","190","2.1.0","190625","","null","
            <div class=""trial-screen"">
                <div class=""fixation-modern"">+</div>
            </div>
        ","null","","","","","",""
"","","","","","html-keyboard-response","191","2.1.0","191273","","646","
        <div class=""progress-bar"" style=""width: 25.833333333333336%;""></div>
        <div class=""trial-counter"">Trial 31 / 120</div>
        <div class=""trial-screen"">
            <div class=""center-image-container"">
                <img src=""images/neutral/Paperclips 3.jpg"" class=""center-image"">
            </div>
            <div class=""arrow-subtle"" style=""left: 8%; top: 25%; transform: translate(-50%, -50%);"">
                ↑
            </div>
        </div>
    ","ArrowUp","images/neutral/Paperclips 3.jpg","neutral","↑","left-upper","↑","1"
"","","","","","html-keyboard-response","192","2.1.0","192150","","null","
            <div class=""trial-screen"">
                <div class=""fixation-modern"">+</div>
            </div>
        ","null","","","","","",""
"","","","","","html-keyboard-response","193","2.1.0","193263","","1112","
        <div class=""progress-bar"" style=""width: 50.83333333333333%;""></div>
        <div class=""trial-counter"">Trial 61 / 120</div>
        <div class=""trial-screen"">
            <div class=""center-image-container"">
                <img src=""images/high_neg/Dummy 1.jpg"" class=""center-image"">
            </div>
            <div class=""arrow-subtle"" style=""left: 92%; top: 85%; transform: translate(-50%, -50%);"">
                ↓
            </div>
        </div>
    ","ArrowDown","images/high_neg/Dummy 1.jpg","high_arousal_negative","↓","right-bottom","↓","1"
"","","","","","html-keyboard-response","194","2.1.0","194068","","null","
            <div class=""trial-screen"">
                <div class=""fixation-modern"">+</div>
            </div>
        ","null","","","","","",""
"","","","","","html-keyboard-response","195","2.1.0","194865","","796","
        <div class=""progress-bar"" style=""width: 75.83333333333333%;""></div>
        <div class=""trial-counter"">Trial 91 / 120</div>
        <div class=""trial-screen"">
            <div class=""center-image-container"">
                <img src=""images/high_pos/Fireworks 2.jpg"" class=""center-image"">
            </div>
            <div class=""arrow-subtle"" style=""left: 8%; top: 45%; transform: translate(-50%, -50%);"">
                ↑
            </div>
        </div>
    ","ArrowUp","images/high_pos/Fireworks 2.jpg","high_arousal_positive","↑","left-mid","↑","1"
"","","","","","html-keyboard-response","196","2.1.0","195669","","null","
            <div class=""trial-screen"">
                <div class=""fixation-modern"">+</div>
            </div>
        ","null","","","","","",""
"","","","","","html-keyboard-response","197","2.1.0","196869","","1200","
        <div class=""progress-bar"" style=""width: 53.333333333333336%;""></div>
        <div class=""trial-counter"">Trial 64 / 120</div>
        <div class=""trial-screen"">
            <div class=""center-image-container"">
                <img src=""images/high_neg/War 8.jpg"" class=""center-image"">
            </div>
            <div class=""arrow-subtle"" style=""left: 8%; top: 35%; transform: translate(-50%, -50%);"">
                ↑
            </div>
        </div>
    ","ArrowUp","images/high_neg/War 8.jpg","high_arousal_negative","↑","left-upper-mid","↑","1"
"","","","","","html-keyboard-response","198","2.1.0","197680","","null","
            <div class=""trial-screen"">
                <div class=""fixation-modern"">+</div>
            </div>
        ","null","","","","","",""
"","","","","","html-keyboard-response","199","2.1.0","198399","","719","
        <div class=""progress-bar"" style=""width: 27.500000000000004%;""></div>
        <div class=""trial-counter"">Trial 33 / 120</div>
        <div class=""trial-screen"">
            <div class=""center-image-container"">
                <img src=""images/neutral/Wall 2.jpg"" class=""center-image"">
            </div>
            <div class=""arrow-subtle"" style=""left: 92%; top: 65%; transform: translate(-50%, -50%);"">
                ↓
            </div>
        </div>
    ","ArrowDown","images/neutral/Wall 2.jpg","neutral","↓","right-lower","↓","1"
"","","","","","html-keyboard-response","200","2.1.0","199202","","null","
            <div class=""trial-screen"">
                <div class=""fixation-modern"">+</div>
            </div>
        ","null","","","","","",""
"","","","","","html-keyboard-response","201","2.1.0","200246","","1044","
        <div class=""progress-bar"" style=""width: 14.166666666666666%;""></div>
        <div class=""trial-counter"">Trial 17 / 120</div>
        <div class=""trial-screen"">
            <div class=""center-image-container"">
                <img src=""images/neutral/Wall 2.jpg"" class=""center-image"">
            </div>
            <div class=""arrow-subtle"" style=""left: 8%; top: 35%; transform: translate(-50%, -50%);"">
                ←
            </div>
        </div>
    ","ArrowLeft","images/neutral/Wall 2.jpg","neutral","←","left-upper-mid","←","1"
"","","","","","html-keyboard-response","202","2.1.0","201055","","null","
            <div class=""trial-screen"">
                <div class=""fixation-modern"">+</div>
            </div>
        ","null","","","","","",""
"","","","","","html-keyboard-response","203","2.1.0","201891","","837","
        <div class=""progress-bar"" style=""width: 84.16666666666667%;""></div>
        <div class=""trial-counter"">Trial 101 / 120</div>
        <div class=""trial-screen"">
            <div class=""center-image-container"">
                <img src=""images/high_pos/Dog 18.jpg"" class=""center-image"">
            </div>
            <div class=""arrow-subtle"" style=""left: 8%; top: 15%; transform: translate(-50%, -50%);"">
                →
            </div>
        </div>
    ","ArrowRight","images/high_pos/Dog 18.jpg","high_arousal_positive","→","left-top","→","1"
"","","","","","html-keyboard-response","204","2.1.0","202694","","null","
            <div class=""trial-screen"">
                <div class=""fixation-modern"">+</div>
            </div>
        ","null","","","","","",""
"","","","","","html-keyboard-response","205","2.1.0","203281","","586","
        <div class=""progress-bar"" style=""width: 12.5%;""></div>
        <div class=""trial-counter"">Trial 15 / 120</div>
        <div class=""trial-screen"">
            <div class=""center-image-container"">
                <img src=""images/neutral/Paperclips 3.jpg"" class=""center-image"">
            </div>
            <div class=""arrow-subtle"" style=""left: 92%; top: 65%; transform: translate(-50%, -50%);"">
                →
            </div>
        </div>
    ","ArrowRight","images/neutral/Paperclips 3.jpg","neutral","→","right-lower","→","1"
"","","","","","html-keyboard-response","206","2.1.0","204088","","null","
            <div class=""trial-screen"">
                <div class=""fixation-modern"">+</div>
            </div>
        ","null","","","","","",""
"","","","","","html-keyboard-response","207","2.1.0","204914","","826","
        <div class=""progress-bar"" style=""width: 58.333333333333336%;""></div>
        <div class=""trial-counter"">Trial 70 / 120</div>
        <div class=""trial-screen"">
            <div class=""center-image-container"">
                <img src=""images/high_neg/Fire 9.jpg"" class=""center-image"">
            </div>
            <div class=""arrow-subtle"" style=""left: 92%; top: 25%; transform: translate(-50%, -50%);"">
                ←
            </div>
        </div>
    ","ArrowLeft","images/high_neg/Fire 9.jpg","high_arousal_negative","←","right-upper","←","1"
"","","","","","html-keyboard-response","208","2.1.0","205719","","null","
            <div class=""trial-screen"">
                <div class=""fixation-modern"">+</div>
            </div>
        ","null","","","","","",""
"","","","","","html-keyboard-response","209","2.1.0","206459","","740","
        <div class=""progress-bar"" style=""width: 7.5%;""></div>
        <div class=""trial-counter"">Trial 9 / 120</div>
        <div class=""trial-screen"">
            <div class=""center-image-container"">
                <img src=""images/neutral/Wall 2.jpg"" class=""center-image"">
            </div>
            <div class=""arrow-subtle"" style=""left: 92%; top: 35%; transform: translate(-50%, -50%);"">
                ←
            </div>
        </div>
    ","ArrowLeft","images/neutral/Wall 2.jpg","neutral","←","right-upper-mid","←","1"
"","","","","","html-keyboard-response","210","2.1.0","207272","","null","
            <div class=""trial-screen"">
                <div class=""fixation-modern"">+</div>
            </div>
        ","null","","","","","",""
"","","","","","html-keyboard-response","211","2.1.0","208036","","762","
        <div class=""progress-bar"" style=""width: 10.833333333333334%;""></div>
        <div class=""trial-counter"">Trial 13 / 120</div>
        <div class=""trial-screen"">
            <div class=""center-image-container"">
                <img src=""images/neutral/Cotton swabs 3.jpg"" class=""center-image"">
            </div>
            <div class=""arrow-subtle"" style=""left: 8%; top: 55%; transform: translate(-50%, -50%);"">
                ↓
            </div>
        </div>
    ","ArrowDown","images/neutral/Cotton swabs 3.jpg","neutral","↓","left-mid-lower","↓","1"
"","","","","","html-keyboard-response","212","2.1.0","208931","","null","
            <div class=""trial-screen"">
                <div class=""fixation-modern"">+</div>
            </div>
        ","null","","","","","",""
"","","","","","html-keyboard-response","213","2.1.0","210180","","1250","
        <div class=""progress-bar"" style=""width: 65.83333333333333%;""></div>
        <div class=""trial-counter"">Trial 79 / 120</div>
        <div class=""trial-screen"">
            <div class=""center-image-container"">
                <img src=""images/high_neg/Miserable pose 3.jpg"" class=""center-image"">
            </div>
            <div class=""arrow-subtle"" style=""left: 92%; top: 55%; transform: translate(-50%, -50%);"">
                ↑
            </div>
        </div>
    ","ArrowUp","images/high_neg/Miserable pose 3.jpg","high_arousal_negative","↑","right-mid-lower","↑","1"
"","","","","","html-keyboard-response","214","2.1.0","210993","","null","
            <div class=""trial-screen"">
                <div class=""fixation-modern"">+</div>
            </div>
        ","null","","","","","",""
"","","","","","html-keyboard-response","215","2.1.0","211603","","610","
        <div class=""progress-bar"" style=""width: 92.5%;""></div>
        <div class=""trial-counter"">Trial 111 / 120</div>
        <div class=""trial-screen"">
            <div class=""center-image-container"">
                <img src=""images/high_pos/Fireworks 6.jpg"" class=""center-image"">
            </div>
            <div class=""arrow-subtle"" style=""left: 8%; top: 25%; transform: translate(-50%, -50%);"">
                ←
            </div>
        </div>
    ","ArrowLeft","images/high_pos/Fireworks 6.jpg","high_arousal_positive","←","left-upper","←","1"
"","","","","","html-keyboard-response","216","2.1.0","212407","","null","
            <div class=""trial-screen"">
                <div class=""fixation-modern"">+</div>
            </div>
        ","null","","","","","",""
"","","","","","html-keyboard-response","217","2.1.0","213477","","1070","
        <div class=""progress-bar"" style=""width: 68.33333333333333%;""></div>
        <div class=""trial-counter"">Trial 82 / 120</div>
        <div class=""trial-screen"">
            <div class=""center-image-container"">
                <img src=""images/high_pos/Dog 6.jpg"" class=""center-image"">
            </div>
            <div class=""arrow-subtle"" style=""left: 8%; top: 35%; transform: translate(-50%, -50%);"">
                ↑
            </div>
        </div>
    ","ArrowUp","images/high_pos/Dog 6.jpg","high_arousal_positive","↑","left-upper-mid","↑","1"
"","","","","","html-keyboard-response","218","2.1.0","214291","","null","
            <div class=""trial-screen"">
                <div class=""fixation-modern"">+</div>
            </div>
        ","null","","","","","",""
"","","","","","html-keyboard-response","219","2.1.0","215032","","740","
        <div class=""progress-bar"" style=""width: 15.833333333333332%;""></div>
        <div class=""trial-counter"">Trial 19 / 120</div>
        <div class=""trial-screen"">
            <div class=""center-image-container"">
                <img src=""images/neutral/Wall 3.jpg"" class=""center-image"">
            </div>
            <div class=""arrow-subtle"" style=""left: 8%; top: 85%; transform: translate(-50%, -50%);"">
                ←
            </div>
        </div>
    ","ArrowLeft","images/neutral/Wall 3.jpg","neutral","←","left-bottom","←","1"
"","","","","","html-keyboard-response","220","2.1.0","215843","","null","
            <div class=""trial-screen"">
                <div class=""fixation-modern"">+</div>
            </div>
        ","null","","","","","",""
"","","","","","html-keyboard-response","221","2.1.0","216797","","953","
        <div class=""progress-bar"" style=""width: 35.833333333333336%;""></div>
        <div class=""trial-counter"">Trial 43 / 120</div>
        <div class=""trial-screen"">
            <div class=""center-image-container"">
                <img src=""images/high_neg/Fire 11.jpg"" class=""center-image"">
            </div>
            <div class=""arrow-subtle"" style=""left: 92%; top: 75%; transform: translate(-50%, -50%);"">
                ←
            </div>
        </div>
    ","ArrowLeft","images/high_neg/Fire 11.jpg","high_arousal_negative","←","right-bottom-upper","←","1"
"","","","","","html-keyboard-response","222","2.1.0","217602","","null","
            <div class=""trial-screen"">
                <div class=""fixation-modern"">+</div>
            </div>
        ","null","","","","","",""
"","","","","","html-keyboard-response","223","2.1.0","218497","","894","
        <div class=""progress-bar"" style=""width: 55.00000000000001%;""></div>
        <div class=""trial-counter"">Trial 66 / 120</div>
        <div class=""trial-screen"">
            <div class=""center-image-container"">
                <img src=""images/high_neg/Explosion 5.jpg"" class=""center-image"">
            </div>
            <div class=""arrow-subtle"" style=""left: 8%; top: 55%; transform: translate(-50%, -50%);"">
                ↑
            </div>
        </div>
    ","ArrowUp","images/high_neg/Explosion 5.jpg","high_arousal_negative","↑","left-mid-lower","↑","1"
"","","","","","html-keyboard-response","224","2.1.0","219308","","null","
            <div class=""trial-screen"">
                <div class=""fixation-modern"">+</div>
            </div>
        ","null","","","","","",""
"","","","","","html-keyboard-response","225","2.1.0","219992","","683","
        <div class=""progress-bar"" style=""width: 33.33333333333333%;""></div>
        <div class=""trial-counter"">Trial 40 / 120</div>
        <div class=""trial-screen"">
            <div class=""center-image-container"">
                <img src=""images/neutral/Office supplies 2.jpg"" class=""center-image"">
            </div>
            <div class=""arrow-subtle"" style=""left: 92%; top: 75%; transform: translate(-50%, -50%);"">
                ←
            </div>
        </div>
    ","ArrowLeft","images/neutral/Office supplies 2.jpg","neutral","←","right-bottom-upper","←","1"
"","","","","","html-keyboard-response","226","2.1.0","220799","","null","
            <div class=""trial-screen"">
                <div class=""fixation-modern"">+</div>
            </div>
        ","null","","","","","",""
"","","","","","html-keyboard-response","227","2.1.0","221433","","633","
        <div class=""progress-bar"" style=""width: 80%;""></div>
        <div class=""trial-counter"">Trial 96 / 120</div>
        <div class=""trial-screen"">
            <div class=""center-image-container"">
                <img src=""images/high_pos/Beach 1.jpg"" class=""center-image"">
            </div>
            <div class=""arrow-subtle"" style=""left: 92%; top: 25%; transform: translate(-50%, -50%);"">
                ↑
            </div>
        </div>
    ","ArrowUp","images/high_pos/Beach 1.jpg","high_arousal_positive","↑","right-upper","↑","1"
"","","","","","html-keyboard-response","228","2.1.0","222241","","null","
            <div class=""trial-screen"">
                <div class=""fixation-modern"">+</div>
            </div>
        ","null","","","","","",""
"","","","","","html-keyboard-response","229","2.1.0","223439","","1197","
        <div class=""progress-bar"" style=""width: 91.66666666666666%;""></div>
        <div class=""trial-counter"">Trial 110 / 120</div>
        <div class=""trial-screen"">
