"success","timeout","failed_images","failed_audio","failed_video","trial_type","trial_index","plugin_version","time_elapsed","view_history","rt","stimulus","response","image","image_category","arrow","arrow_position","response_arrow","correct"
"true","false","[]","[]","[]","preload","0","2.1.0","4","","","","","","","","","",""
"","","","","","instructions","1","2.1.0","5756","[{""page_index"":0,""viewing_time"":2181},{""page_index"":1,""viewing_time"":1575},{""page_index"":2,""viewing_time"":1996}]","5752","","","","","","","",""
"","","","","","html-keyboard-response","2","2.1.0","6564","","null","
            <div class=""trial-screen"">
                <div class=""fixation-modern"">+</div>
            </div>
        ","null","","","","","",""
"","","","","","html-keyboard-response","3","2.1.0","7803","","1238","
        <div class=""progress-bar"" style=""width: 12.5%;""></div>
        <div class=""trial-counter"">Trial 15 / 120</div>
        <div class=""trial-screen"">
            <div class=""center-image-container"">
                <img src=""images/neutral/Paperclips 3.jpg"" class=""center-image"">
            </div>
            <div class=""arrow-subtle"" style=""left: 8%; top: 25%; transform: translate(-50%, -50%);"">
                ↓
            </div>
        </div>
    ","ArrowDown","images/neutral/Paperclips 3.jpg","neutral","↓","left-upper","↓","1"
"","","","","","html-keyboard-response","4","2.1.0","8616","","null","
            <div class=""trial-screen"">
                <div class=""fixation-modern"">+</div>
            </div>
        ","null","","","","","",""
"","","","","","html-keyboard-response","5","2.1.0","10296","","1678","
        <div class=""progress-bar"" style=""width: 40%;""></div>
        <div class=""trial-counter"">Trial 48 / 120</div>
        <div class=""trial-screen"">
            <div class=""center-image-container"">
                <img src=""images/high_neg/War 8.jpg"" class=""center-image"">
            </div>
            <div class=""arrow-subtle"" style=""left: 8%; top: 65%; transform: translate(-50%, -50%);"">
                ↑
            </div>
        </div>
    ","ArrowUp","images/high_neg/War 8.jpg","high_arousal_negative","↑","left-lower","↑","1"
"","","","","","html-keyboard-response","6","2.1.0","11110","","null","
            <div class=""trial-screen"">
                <div class=""fixation-modern"">+</div>
            </div>
        ","null","","","","","",""
"","","","","","html-keyboard-response","7","2.1.0","12313","","1203","
        <div class=""progress-bar"" style=""width: 61.66666666666667%;""></div>
        <div class=""trial-counter"">Trial 74 / 120</div>
        <div class=""trial-screen"">
            <div class=""center-image-container"">
                <img src=""images/high_neg/Explosion 5.jpg"" class=""center-image"">
            </div>
            <div class=""arrow-subtle"" style=""left: 8%; top: 15%; transform: translate(-50%, -50%);"">
                →
            </div>
        </div>
    ","ArrowRight","images/high_neg/Explosion 5.jpg","high_arousal_negative","→","left-top","→","1"
"","","","","","html-keyboard-response","8","2.1.0","13129","","null","
            <div class=""trial-screen"">
                <div class=""fixation-modern"">+</div>
            </div>
        ","null","","","","","",""
"","","","","","html-keyboard-response","9","2.1.0","15446","","2316","
        <div class=""progress-bar"" style=""width: 64.16666666666667%;""></div>
        <div class=""trial-counter"">Trial 77 / 120</div>
        <div class=""trial-screen"">
            <div class=""center-image-container"">
                <img src=""images/high_neg/Dummy 1.jpg"" class=""center-image"">
            </div>
            <div class=""arrow-subtle"" style=""left: 8%; top: 35%; transform: translate(-50%, -50%);"">
                ←
            </div>
        </div>
    ","ArrowLeft","images/high_neg/Dummy 1.jpg","high_arousal_negative","←","left-upper-mid","←","1"
"","","","","","html-keyboard-response","10","2.1.0","16255","","null","
            <div class=""trial-screen"">
                <div class=""fixation-modern"">+</div>
            </div>
        ","null","","","","","",""
"","","","","","html-keyboard-response","11","2.1.0","16962","","707","
        <div class=""progress-bar"" style=""width: 18.333333333333332%;""></div>
        <div class=""trial-counter"">Trial 22 / 120</div>
        <div class=""trial-screen"">
            <div class=""center-image-container"">
                <img src=""images/neutral/Paper 3.jpg"" class=""center-image"">
            </div>
            <div class=""arrow-subtle"" style=""left: 8%; top: 65%; transform: translate(-50%, -50%);"">
                ↑
            </div>
        </div>
    ","ArrowUp","images/neutral/Paper 3.jpg","neutral","↑","left-lower","↑","1"
"","","","","","html-keyboard-response","12","2.1.0","17766","","null","
            <div class=""trial-screen"">
                <div class=""fixation-modern"">+</div>
            </div>
        ","null","","","","","",""
"","","","","","html-keyboard-response","13","2.1.0","19929","","2162","
        <div class=""progress-bar"" style=""width: 40.833333333333336%;""></div>
        <div class=""trial-counter"">Trial 49 / 120</div>
        <div class=""trial-screen"">
            <div class=""center-image-container"">
                <img src=""images/high_neg/Injury 4.jpg"" class=""center-image"">
            </div>
            <div class=""arrow-subtle"" style=""left: 92%; top: 75%; transform: translate(-50%, -50%);"">
                ↓
            </div>
        </div>
    ","ArrowDown","images/high_neg/Injury 4.jpg","high_arousal_negative","↓","right-bottom-upper","↓","1"
"","","","","","html-keyboard-response","14","2.1.0","20731","","null","
            <div class=""trial-screen"">
                <div class=""fixation-modern"">+</div>
            </div>
        ","null","","","","","",""
"","","","","","html-keyboard-response","15","2.1.0","23606","","2873","
        <div class=""progress-bar"" style=""width: 82.5%;""></div>
        <div class=""trial-counter"">Trial 99 / 120</div>
        <div class=""trial-screen"">
            <div class=""center-image-container"">
                <img src=""images/high_pos/Fireworks 2.jpg"" class=""center-image"">
            </div>
            <div class=""arrow-subtle"" style=""left: 92%; top: 55%; transform: translate(-50%, -50%);"">
                ←
            </div>
        </div>
    ","ArrowLeft","images/high_pos/Fireworks 2.jpg","high_arousal_positive","←","right-mid-lower","←","1"
"","","","","","html-keyboard-response","16","2.1.0","24421","","null","
            <div class=""trial-screen"">
                <div class=""fixation-modern"">+</div>
            </div>
        ","null","","","","","",""
"","","","","","html-keyboard-response","17","2.1.0","25133","","711","
        <div class=""progress-bar"" style=""width: 23.333333333333332%;""></div>
        <div class=""trial-counter"">Trial 28 / 120</div>
        <div class=""trial-screen"">
            <div class=""center-image-container"">
                <img src=""images/neutral/Bricks 1.jpg"" class=""center-image"">
            </div>
            <div class=""arrow-subtle"" style=""left: 92%; top: 15%; transform: translate(-50%, -50%);"">
                →
            </div>
        </div>
    ","ArrowRight","images/neutral/Bricks 1.jpg","neutral","→","right-top","→","1"
"","","","","","html-keyboard-response","18","2.1.0","25936","","null","
            <div class=""trial-screen"">
                <div class=""fixation-modern"">+</div>
            </div>
        ","null","","","","","",""
"","","","","","html-keyboard-response","19","2.1.0","26585","","647","
        <div class=""progress-bar"" style=""width: 0.8333333333333334%;""></div>
        <div class=""trial-counter"">Trial 1 / 120</div>
        <div class=""trial-screen"">
            <div class=""center-image-container"">
                <img src=""images/neutral/Wall 2.jpg"" class=""center-image"">
            </div>
            <div class=""arrow-subtle"" style=""left: 92%; top: 15%; transform: translate(-50%, -50%);"">
                →
            </div>
        </div>
    ","ArrowRight","images/neutral/Wall 2.jpg","neutral","→","right-top","→","1"
"","","","","","html-keyboard-response","20","2.1.0","27386","","null","
            <div class=""trial-screen"">
                <div class=""fixation-modern"">+</div>
            </div>
        ","null","","","","","",""
"","","","","","html-keyboard-response","21","2.1.0","28159","","772","
        <div class=""progress-bar"" style=""width: 17.5%;""></div>
        <div class=""trial-counter"">Trial 21 / 120</div>
        <div class=""trial-screen"">
            <div class=""center-image-container"">
                <img src=""images/neutral/Cotton swabs 3.jpg"" class=""center-image"">
            </div>
            <div class=""arrow-subtle"" style=""left: 92%; top: 35%; transform: translate(-50%, -50%);"">
                ↑
            </div>
        </div>
    ","ArrowUp","images/neutral/Cotton swabs 3.jpg","neutral","↑","right-upper-mid","↑","1"
"","","","","","html-keyboard-response","22","2.1.0","28961","","null","
            <div class=""trial-screen"">
                <div class=""fixation-modern"">+</div>
            </div>
        ","null","","","","","",""
"","","","","","html-keyboard-response","23","2.1.0","30525","","1563","
        <div class=""progress-bar"" style=""width: 69.16666666666667%;""></div>
        <div class=""trial-counter"">Trial 83 / 120</div>
        <div class=""trial-screen"">
            <div class=""center-image-container"">
                <img src=""images/high_pos/Fireworks 2.jpg"" class=""center-image"">
            </div>
            <div class=""arrow-subtle"" style=""left: 8%; top: 45%; transform: translate(-50%, -50%);"">
                ←
            </div>
        </div>
    ","ArrowLeft","images/high_pos/Fireworks 2.jpg","high_arousal_positive","←","left-mid","←","1"
"","","","","","html-keyboard-response","24","2.1.0","31333","","null","
            <div class=""trial-screen"">
                <div class=""fixation-modern"">+</div>
            </div>
        ","null","","","","","",""
"","","","","","html-keyboard-response","25","2.1.0","32795","","1462","
        <div class=""progress-bar"" style=""width: 55.00000000000001%;""></div>
        <div class=""trial-counter"">Trial 66 / 120</div>
        <div class=""trial-screen"">
            <div class=""center-image-container"">
                <img src=""images/high_neg/Explosion 5.jpg"" class=""center-image"">
            </div>
            <div class=""arrow-subtle"" style=""left: 8%; top: 85%; transform: translate(-50%, -50%);"">
                ←
            </div>
        </div>
    ","ArrowLeft","images/high_neg/Explosion 5.jpg","high_arousal_negative","←","left-bottom","←","1"
"","","","","","html-keyboard-response","26","2.1.0","33607","","null","
            <div class=""trial-screen"">
                <div class=""fixation-modern"">+</div>
            </div>
        ","null","","","","","",""
"","","","","","html-keyboard-response","27","2.1.0","34803","","1195","
        <div class=""progress-bar"" style=""width: 80.83333333333333%;""></div>
        <div class=""trial-counter"">Trial 97 / 120</div>
        <div class=""trial-screen"">
            <div class=""center-image-container"">
                <img src=""images/high_pos/Nude couple 5.jpg"" class=""center-image"">
            </div>
            <div class=""arrow-subtle"" style=""left: 92%; top: 55%; transform: translate(-50%, -50%);"">
                →
            </div>
        </div>
    ","ArrowRight","images/high_pos/Nude couple 5.jpg","high_arousal_positive","→","right-mid-lower","→","1"
"","","","","","html-keyboard-response","28","2.1.0","35604","","null","
            <div class=""trial-screen"">
                <div class=""fixation-modern"">+</div>
            </div>
        ","null","","","","","",""
"","","","","","html-keyboard-response","29","2.1.0","36806","","1201","
        <div class=""progress-bar"" style=""width: 94.16666666666667%;""></div>
        <div class=""trial-counter"">Trial 113 / 120</div>
        <div class=""trial-screen"">
            <div class=""center-image-container"">
                <img src=""images/high_pos/Nude couple 5.jpg"" class=""center-image"">
            </div>
            <div class=""arrow-subtle"" style=""left: 92%; top: 75%; transform: translate(-50%, -50%);"">
                →
            </div>
        </div>
    ","ArrowRight","images/high_pos/Nude couple 5.jpg","high_arousal_positive","→","right-bottom-upper","→","1"
"","","","","","html-keyboard-response","30","2.1.0","37619","","null","
            <div class=""trial-screen"">
                <div class=""fixation-modern"">+</div>
            </div>
        ","null","","","","","",""
"","","","","","html-keyboard-response","31","2.1.0","38477","","858","
        <div class=""progress-bar"" style=""width: 5%;""></div>
        <div class=""trial-counter"">Trial 6 / 120</div>
        <div class=""trial-screen"">
            <div class=""center-image-container"">
                <img src=""images/neutral/Paper 3.jpg"" class=""center-image"">
            </div>
            <div class=""arrow-subtle"" style=""left: 8%; top: 65%; transform: translate(-50%, -50%);"">
                →
            </div>
        </div>
    ","ArrowRight","images/neutral/Paper 3.jpg","neutral","→","left-lower","→","1"
"","","","","","html-keyboard-response","32","2.1.0","39286","","null","
            <div class=""trial-screen"">
                <div class=""fixation-modern"">+</div>
            </div>
        ","null","","","","","",""
"","","","","","html-keyboard-response","33","2.1.0","40601","","1315","
        <div class=""progress-bar"" style=""width: 70%;""></div>
        <div class=""trial-counter"">Trial 84 / 120</div>
        <div class=""trial-screen"">
            <div class=""center-image-container"">
                <img src=""images/high_pos/Rainbow 2.jpg"" class=""center-image"">
            </div>
            <div class=""arrow-subtle"" style=""left: 92%; top: 75%; transform: translate(-50%, -50%);"">
                →
            </div>
        </div>
    ","ArrowRight","images/high_pos/Rainbow 2.jpg","high_arousal_positive","→","right-bottom-upper","→","1"
"","","","","","html-keyboard-response","34","2.1.0","41410","","null","
            <div class=""trial-screen"">
                <div class=""fixation-modern"">+</div>
            </div>
        ","null","","","","","",""
"","","","","","html-keyboard-response","35","2.1.0","43519","","2108","
        <div class=""progress-bar"" style=""width: 52.5%;""></div>
        <div class=""trial-counter"">Trial 63 / 120</div>
        <div class=""trial-screen"">
            <div class=""center-image-container"">
                <img src=""images/high_neg/Miserable pose 3.jpg"" class=""center-image"">
            </div>
            <div class=""arrow-subtle"" style=""left: 92%; top: 45%; transform: translate(-50%, -50%);"">
                ←
            </div>
        </div>
    ","ArrowLeft","images/high_neg/Miserable pose 3.jpg","high_arousal_negative","←","right-mid","←","1"
"","","","","","html-keyboard-response","36","2.1.0","44334","","null","
            <div class=""trial-screen"">
                <div class=""fixation-modern"">+</div>
            </div>
        ","null","","","","","",""
"","","","","","html-keyboard-response","37","2.1.0","45359","","1024","
        <div class=""progress-bar"" style=""width: 75%;""></div>
        <div class=""trial-counter"">Trial 90 / 120</div>
        <div class=""trial-screen"">
            <div class=""center-image-container"">
                <img src=""images/high_pos/Dog 6.jpg"" class=""center-image"">
            </div>
            <div class=""arrow-subtle"" style=""left: 8%; top: 35%; transform: translate(-50%, -50%);"">
                ↑
            </div>
        </div>
    ","ArrowUp","images/high_pos/Dog 6.jpg","high_arousal_positive","↑","left-upper-mid","↑","1"
"","","","","","html-keyboard-response","38","2.1.0","46174","","null","
            <div class=""trial-screen"">
                <div class=""fixation-modern"">+</div>
            </div>
        ","null","","","","","",""
"","","","","","html-keyboard-response","39","2.1.0","46920","","746","
        <div class=""progress-bar"" style=""width: 1.6666666666666667%;""></div>
        <div class=""trial-counter"">Trial 2 / 120</div>
        <div class=""trial-screen"">
            <div class=""center-image-container"">
                <img src=""images/neutral/Wall 1.jpg"" class=""center-image"">
            </div>
            <div class=""arrow-subtle"" style=""left: 8%; top: 55%; transform: translate(-50%, -50%);"">
                ↑
            </div>
        </div>
    ","ArrowUp","images/neutral/Wall 1.jpg","neutral","↑","left-mid-lower","↑","1"
"","","","","","html-keyboard-response","40","2.1.0","47733","","null","
            <div class=""trial-screen"">
                <div class=""fixation-modern"">+</div>
            </div>
        ","null","","","","","",""
"","","","","","html-keyboard-response","41","2.1.0","48992","","1258","
        <div class=""progress-bar"" style=""width: 85.83333333333333%;""></div>
        <div class=""trial-counter"">Trial 103 / 120</div>
        <div class=""trial-screen"">
            <div class=""center-image-container"">
                <img src=""images/high_pos/Fireworks 6.jpg"" class=""center-image"">
            </div>
            <div class=""arrow-subtle"" style=""left: 8%; top: 55%; transform: translate(-50%, -50%);"">
                ←
            </div>
        </div>
    ","ArrowLeft","images/high_pos/Fireworks 6.jpg","high_arousal_positive","←","left-mid-lower","←","1"
"","","","","","html-keyboard-response","42","2.1.0","49796","","null","
            <div class=""trial-screen"">
                <div class=""fixation-modern"">+</div>
            </div>
        ","null","","","","","",""
"","","","","","html-keyboard-response","43","2.1.0","51262","","1466","
        <div class=""progress-bar"" style=""width: 65%;""></div>
        <div class=""trial-counter"">Trial 78 / 120</div>
        <div class=""trial-screen"">
            <div class=""center-image-container"">
                <img src=""images/high_neg/Fire 9.jpg"" class=""center-image"">
            </div>
            <div class=""arrow-subtle"" style=""left: 8%; top: 65%; transform: translate(-50%, -50%);"">
                ←
            </div>
        </div>
    ","ArrowLeft","images/high_neg/Fire 9.jpg","high_arousal_negative","←","left-lower","←","1"
"","","","","","html-keyboard-response","44","2.1.0","52073","","null","
            <div class=""trial-screen"">
                <div class=""fixation-modern"">+</div>
            </div>
        ","null","","","","","",""
"","","","","","html-keyboard-response","45","2.1.0","52901","","826","
        <div class=""progress-bar"" style=""width: 71.66666666666667%;""></div>
        <div class=""trial-counter"">Trial 86 / 120</div>
        <div class=""trial-screen"">
            <div class=""center-image-container"">
                <img src=""images/high_pos/Cat 5.jpg"" class=""center-image"">
            </div>
            <div class=""arrow-subtle"" style=""left: 8%; top: 65%; transform: translate(-50%, -50%);"">
                →
            </div>
        </div>
    ","ArrowRight","images/high_pos/Cat 5.jpg","high_arousal_positive","→","left-lower","→","1"
"","","","","","html-keyboard-response","46","2.1.0","53711","","null","
            <div class=""trial-screen"">
                <div class=""fixation-modern"">+</div>
            </div>
        ","null","","","","","",""
"","","","","","html-keyboard-response","47","2.1.0","54368","","655","
        <div class=""progress-bar"" style=""width: 97.5%;""></div>
        <div class=""trial-counter"">Trial 117 / 120</div>
        <div class=""trial-screen"">
            <div class=""center-image-container"">
                <img src=""images/high_pos/Dog 18.jpg"" class=""center-image"">
            </div>
            <div class=""arrow-subtle"" style=""left: 92%; top: 25%; transform: translate(-50%, -50%);"">
                ←
            </div>
        </div>
    ","ArrowLeft","images/high_pos/Dog 18.jpg","high_arousal_positive","←","right-upper","←","1"
"","","","","","html-keyboard-response","48","2.1.0","55177","","null","
            <div class=""trial-screen"">
                <div class=""fixation-modern"">+</div>
            </div>
        ","null","","","","","",""
"","","","","","html-keyboard-response","49","2.1.0","55892","","714","
        <div class=""progress-bar"" style=""width: 78.33333333333333%;""></div>
        <div class=""trial-counter"">Trial 94 / 120</div>
        <div class=""trial-screen"">
            <div class=""center-image-container"">
                <img src=""images/high_pos/Cat 5.jpg"" class=""center-image"">
            </div>
            <div class=""arrow-subtle"" style=""left: 8%; top: 15%; transform: translate(-50%, -50%);"">
                ↑
            </div>
        </div>
    ","ArrowUp","images/high_pos/Cat 5.jpg","high_arousal_positive","↑","left-top","↑","1"
"","","","","","html-keyboard-response","50","2.1.0","56704","","null","
            <div class=""trial-screen"">
                <div class=""fixation-modern"">+</div>
            </div>
        ","null","","","","","",""
"","","","","","html-keyboard-response","51","2.1.0","57974","","1269","
        <div class=""progress-bar"" style=""width: 47.5%;""></div>
        <div class=""trial-counter"">Trial 57 / 120</div>
        <div class=""trial-screen"">
            <div class=""center-image-container"">
                <img src=""images/high_neg/Injury 4.jpg"" class=""center-image"">
            </div>
            <div class=""arrow-subtle"" style=""left: 92%; top: 45%; transform: translate(-50%, -50%);"">
                ↓
            </div>
        </div>
    ","ArrowDown","images/high_neg/Injury 4.jpg","high_arousal_negative","↓","right-mid","↓","1"
"","","","","","html-keyboard-response","52","2.1.0","58777","","null","
            <div class=""trial-screen"">
                <div class=""fixation-modern"">+</div>
            </div>
        ","null","","","","","",""
"","","","","","html-keyboard-response","53","2.1.0","59493","","714","
        <div class=""progress-bar"" style=""width: 30.833333333333336%;""></div>
        <div class=""trial-counter"">Trial 37 / 120</div>
        <div class=""trial-screen"">
            <div class=""center-image-container"">
                <img src=""images/neutral/Cotton swabs 3.jpg"" class=""center-image"">
            </div>
            <div class=""arrow-subtle"" style=""left: 8%; top: 25%; transform: translate(-50%, -50%);"">
                →
            </div>
        </div>
    ","ArrowRight","images/neutral/Cotton swabs 3.jpg","neutral","→","left-upper","→","1"
"","","","","","html-keyboard-response","54","2.1.0","60303","","null","
            <div class=""trial-screen"">
                <div class=""fixation-modern"">+</div>
            </div>
        ","null","","","","","",""
"","","","","","html-keyboard-response","55","2.1.0","62038","","1733","
        <div class=""progress-bar"" style=""width: 72.5%;""></div>
        <div class=""trial-counter"">Trial 87 / 120</div>
        <div class=""trial-screen"">
            <div class=""center-image-container"">
                <img src=""images/high_pos/Fireworks 6.jpg"" class=""center-image"">
            </div>
            <div class=""arrow-subtle"" style=""left: 8%; top: 45%; transform: translate(-50%, -50%);"">
                ←
            </div>
        </div>
    ","ArrowLeft","images/high_pos/Fireworks 6.jpg","high_arousal_positive","←","left-mid","←","1"
"","","","","","html-keyboard-response","56","2.1.0","62845","","null","
            <div class=""trial-screen"">
                <div class=""fixation-modern"">+</div>
            </div>
        ","null","","","","","",""
"","","","","","html-keyboard-response","57","2.1.0","64151","","1304","
        <div class=""progress-bar"" style=""width: 49.166666666666664%;""></div>
        <div class=""trial-counter"">Trial 59 / 120</div>
        <div class=""trial-screen"">
            <div class=""center-image-container"">
                <img src=""images/high_neg/Fire 11.jpg"" class=""center-image"">
            </div>
            <div class=""arrow-subtle"" style=""left: 8%; top: 65%; transform: translate(-50%, -50%);"">
                →
            </div>
        </div>
    ","ArrowRight","images/high_neg/Fire 11.jpg","high_arousal_negative","→","left-lower","→","1"
"","","","","","html-keyboard-response","58","2.1.0","64966","","null","
            <div class=""trial-screen"">
                <div class=""fixation-modern"">+</div>
            </div>
        ","null","","","","","",""
"","","","","","html-keyboard-response","59","2.1.0","65882","","915","
        <div class=""progress-bar"" style=""width: 9.166666666666666%;""></div>
        <div class=""trial-counter"">Trial 11 / 120</div>
        <div class=""trial-screen"">
            <div class=""center-image-container"">
                <img src=""images/neutral/Wall 3.jpg"" class=""center-image"">
            </div>
            <div class=""arrow-subtle"" style=""left: 8%; top: 75%; transform: translate(-50%, -50%);"">
                →
            </div>
        </div>
    ","ArrowRight","images/neutral/Wall 3.jpg","neutral","→","left-bottom-upper","→","1"
"","","","","","html-keyboard-response","60","2.1.0","66698","","null","
            <div class=""trial-screen"">
                <div class=""fixation-modern"">+</div>
            </div>
        ","null","","","","","",""
"","","","","","html-keyboard-response","61","2.1.0","68344","","1644","
        <div class=""progress-bar"" style=""width: 46.666666666666664%;""></div>
        <div class=""trial-counter"">Trial 56 / 120</div>
        <div class=""trial-screen"">
            <div class=""center-image-container"">
                <img src=""images/high_neg/War 8.jpg"" class=""center-image"">
            </div>
            <div class=""arrow-subtle"" style=""left: 92%; top: 45%; transform: translate(-50%, -50%);"">
                ↓
            </div>
        </div>
    ","ArrowDown","images/high_neg/War 8.jpg","high_arousal_negative","↓","right-mid","↓","1"
"","","","","","html-keyboard-response","62","2.1.0","69146","","null","
            <div class=""trial-screen"">
                <div class=""fixation-modern"">+</div>
            </div>
        ","null","","","","","",""
"","","","","","html-keyboard-response","63","2.1.0","70395","","1249","
        <div class=""progress-bar"" style=""width: 7.5%;""></div>
        <div class=""trial-counter"">Trial 9 / 120</div>
        <div class=""trial-screen"">
            <div class=""center-image-container"">
                <img src=""images/neutral/Wall 2.jpg"" class=""center-image"">
            </div>
            <div class=""arrow-subtle"" style=""left: 8%; top: 45%; transform: translate(-50%, -50%);"">
                ↓
            </div>
        </div>
    ","ArrowDown","images/neutral/Wall 2.jpg","neutral","↓","left-mid","↓","1"
"","","","","","html-keyboard-response","64","2.1.0","71201","","null","
            <div class=""trial-screen"">
                <div class=""fixation-modern"">+</div>
            </div>
        ","null","","","","","",""
"","","","","","html-keyboard-response","65","2.1.0","72733","","1532","
        <div class=""progress-bar"" style=""width: 60.83333333333333%;""></div>
        <div class=""trial-counter"">Trial 73 / 120</div>
        <div class=""trial-screen"">
            <div class=""center-image-container"">
                <img src=""images/high_neg/Injury 4.jpg"" class=""center-image"">
            </div>
            <div class=""arrow-subtle"" style=""left: 92%; top: 35%; transform: translate(-50%, -50%);"">
                ↑
            </div>
        </div>
    ","ArrowUp","images/high_neg/Injury 4.jpg","high_arousal_negative","↑","right-upper-mid","↑","1"
"","","","","","html-keyboard-response","66","2.1.0","73534","","null","
            <div class=""trial-screen"">
                <div class=""fixation-modern"">+</div>
            </div>
        ","null","","","","","",""
"","","","","","html-keyboard-response","67","2.1.0","74300","","765","
        <div class=""progress-bar"" style=""width: 26.666666666666668%;""></div>
        <div class=""trial-counter"">Trial 32 / 120</div>
        <div class=""trial-screen"">
            <div class=""center-image-container"">
                <img src=""images/neutral/Office supplies 2.jpg"" class=""center-image"">
            </div>
            <div class=""arrow-subtle"" style=""left: 92%; top: 35%; transform: translate(-50%, -50%);"">
                →
            </div>
        </div>
    ","ArrowRight","images/neutral/Office supplies 2.jpg","neutral","→","right-upper-mid","→","1"
"","","","","","html-keyboard-response","68","2.1.0","75108","","null","
            <div class=""trial-screen"">
                <div class=""fixation-modern"">+</div>
            </div>
        ","null","","","","","",""
"","","","","","html-keyboard-response","69","2.1.0","76317","","1208","
        <div class=""progress-bar"" style=""width: 50%;""></div>
        <div class=""trial-counter"">Trial 60 / 120</div>
        <div class=""trial-screen"">
            <div class=""center-image-container"">
                <img src=""images/high_neg/Fire 5.jpg"" class=""center-image"">
            </div>
            <div class=""arrow-subtle"" style=""left: 8%; top: 55%; transform: translate(-50%, -50%);"">
                ↓
            </div>
        </div>
    ","ArrowDown","images/high_neg/Fire 5.jpg","high_arousal_negative","↓","left-mid-lower","↓","1"
"","","","","","html-keyboard-response","70","2.1.0","77118","","null","
            <div class=""trial-screen"">
                <div class=""fixation-modern"">+</div>
            </div>
        ","null","","","","","",""
"","","","","","html-keyboard-response","71","2.1.0","78203","","1085","
        <div class=""progress-bar"" style=""width: 79.16666666666666%;""></div>
        <div class=""trial-counter"">Trial 95 / 120</div>
        <div class=""trial-screen"">
            <div class=""center-image-container"">
                <img src=""images/high_pos/Fireworks 6.jpg"" class=""center-image"">
            </div>
            <div class=""arrow-subtle"" style=""left: 92%; top: 45%; transform: translate(-50%, -50%);"">
                ←
            </div>
        </div>
    ","ArrowLeft","images/high_pos/Fireworks 6.jpg","high_arousal_positive","←","right-mid","←","1"
"","","","","","html-keyboard-response","72","2.1.0","79017","","null","
            <div class=""trial-screen"">
                <div class=""fixation-modern"">+</div>
            </div>
        ","null","","","","","",""
"","","","","","html-keyboard-response","73","2.1.0","79816","","797","
        <div class=""progress-bar"" style=""width: 6.666666666666667%;""></div>
        <div class=""trial-counter"">Trial 8 / 120</div>
        <div class=""trial-screen"">
            <div class=""center-image-container"">
                <img src=""images/neutral/Office supplies 2.jpg"" class=""center-image"">
            </div>
            <div class=""arrow-subtle"" style=""left: 92%; top: 75%; transform: translate(-50%, -50%);"">
                ↓
            </div>
        </div>
    ","ArrowDown","images/neutral/Office supplies 2.jpg","neutral","↓","right-bottom-upper","↓","1"
"","","","","","html-keyboard-response","74","2.1.0","80622","","null","
            <div class=""trial-screen"">
                <div class=""fixation-modern"">+</div>
            </div>
        ","null","","","","","",""
"","","","","","html-keyboard-response","75","2.1.0","81484","","860","
        <div class=""progress-bar"" style=""width: 5.833333333333333%;""></div>
        <div class=""trial-counter"">Trial 7 / 120</div>
        <div class=""trial-screen"">
            <div class=""center-image-container"">
                <img src=""images/neutral/Paperclips 3.jpg"" class=""center-image"">
            </div>
            <div class=""arrow-subtle"" style=""left: 8%; top: 65%; transform: translate(-50%, -50%);"">
                →
            </div>
        </div>
    ","ArrowRight","images/neutral/Paperclips 3.jpg","neutral","→","left-lower","→","1"
"","","","","","html-keyboard-response","76","2.1.0","82291","","null","
            <div class=""trial-screen"">
                <div class=""fixation-modern"">+</div>
            </div>
        ","null","","","","","",""
"","","","","","html-keyboard-response","77","2.1.0","82976","","684","
        <div class=""progress-bar"" style=""width: 15%;""></div>
        <div class=""trial-counter"">Trial 18 / 120</div>
        <div class=""trial-screen"">
            <div class=""center-image-container"">
                <img src=""images/neutral/Wall 1.jpg"" class=""center-image"">
            </div>
            <div class=""arrow-subtle"" style=""left: 8%; top: 55%; transform: translate(-50%, -50%);"">
                ←
            </div>
        </div>
    ","ArrowLeft","images/neutral/Wall 1.jpg","neutral","←","left-mid-lower","←","1"
"","","","","","html-keyboard-response","78","2.1.0","83787","","null","
            <div class=""trial-screen"">
                <div class=""fixation-modern"">+</div>
            </div>
        ","null","","","","","",""
"","","","","","html-keyboard-response","79","2.1.0","84985","","1197","
        <div class=""progress-bar"" style=""width: 80%;""></div>
        <div class=""trial-counter"">Trial 96 / 120</div>
        <div class=""trial-screen"">
            <div class=""center-image-container"">
                <img src=""images/high_pos/Beach 1.jpg"" class=""center-image"">
            </div>
            <div class=""arrow-subtle"" style=""left: 8%; top: 85%; transform: translate(-50%, -50%);"">
                ↑
            </div>
        </div>
    ","ArrowUp","images/high_pos/Beach 1.jpg","high_arousal_positive","↑","left-bottom","↑","1"
"","","","","","html-keyboard-response","80","2.1.0","85798","","null","
            <div class=""trial-screen"">
                <div class=""fixation-modern"">+</div>
            </div>
        ","null","","","","","",""
"","","","","","html-keyboard-response","81","2.1.0","86546","","748","
        <div class=""progress-bar"" style=""width: 25%;""></div>
        <div class=""trial-counter"">Trial 30 / 120</div>
        <div class=""trial-screen"">
            <div class=""center-image-container"">
                <img src=""images/neutral/Paper 3.jpg"" class=""center-image"">
            </div>
            <div class=""arrow-subtle"" style=""left: 8%; top: 25%; transform: translate(-50%, -50%);"">
                ←
            </div>
        </div>
    ","ArrowLeft","images/neutral/Paper 3.jpg","neutral","←","left-upper","←","1"
"","","","","","html-keyboard-response","82","2.1.0","87354","","null","
            <div class=""trial-screen"">
                <div class=""fixation-modern"">+</div>
            </div>
        ","null","","","","","",""
"","","","","","html-keyboard-response","83","2.1.0","89093","","1737","
        <div class=""progress-bar"" style=""width: 62.5%;""></div>
        <div class=""trial-counter"">Trial 75 / 120</div>
        <div class=""trial-screen"">
            <div class=""center-image-container"">
                <img src=""images/high_neg/Fire 11.jpg"" class=""center-image"">
            </div>
            <div class=""arrow-subtle"" style=""left: 8%; top: 85%; transform: translate(-50%, -50%);"">
                ←
            </div>
        </div>
    ","ArrowLeft","images/high_neg/Fire 11.jpg","high_arousal_negative","←","left-bottom","←","1"
"","","","","","html-keyboard-response","84","2.1.0","89902","","null","
            <div class=""trial-screen"">
                <div class=""fixation-modern"">+</div>
            </div>
        ","null","","","","","",""
"","","","","","html-keyboard-response","85","2.1.0","90767","","864","
        <div class=""progress-bar"" style=""width: 67.5%;""></div>
        <div class=""trial-counter"">Trial 81 / 120</div>
        <div class=""trial-screen"">
            <div class=""center-image-container"">
                <img src=""images/high_pos/Nude couple 5.jpg"" class=""center-image"">
            </div>
            <div class=""arrow-subtle"" style=""left: 92%; top: 55%; transform: translate(-50%, -50%);"">
                ↓
            </div>
        </div>
    ","ArrowDown","images/high_pos/Nude couple 5.jpg","high_arousal_positive","↓","right-mid-lower","↓","1"
"","","","","","html-keyboard-response","86","2.1.0","91575","","null","
            <div class=""trial-screen"">
                <div class=""fixation-modern"">+</div>
            </div>
        ","null","","","","","",""
"","","","","","html-keyboard-response","87","2.1.0","92237","","660","
        <div class=""progress-bar"" style=""width: 10%;""></div>
        <div class=""trial-counter"">Trial 12 / 120</div>
        <div class=""trial-screen"">
            <div class=""center-image-container"">
                <img src=""images/neutral/Bricks 1.jpg"" class=""center-image"">
            </div>
            <div class=""arrow-subtle"" style=""left: 92%; top: 75%; transform: translate(-50%, -50%);"">
                ↑
            </div>
        </div>
    ","ArrowUp","images/neutral/Bricks 1.jpg","neutral","↑","right-bottom-upper","↑","1"
"","","","","","html-keyboard-response","88","2.1.0","93052","","null","
            <div class=""trial-screen"">
                <div class=""fixation-modern"">+</div>
            </div>
        ","null","","","","","",""
"","","","","","html-keyboard-response","89","2.1.0","93698","","645","
        <div class=""progress-bar"" style=""width: 8.333333333333332%;""></div>
        <div class=""trial-counter"">Trial 10 / 120</div>
        <div class=""trial-screen"">
            <div class=""center-image-container"">
                <img src=""images/neutral/Wall 1.jpg"" class=""center-image"">
            </div>
            <div class=""arrow-subtle"" style=""left: 8%; top: 35%; transform: translate(-50%, -50%);"">
                ↓
            </div>
        </div>
    ","ArrowDown","images/neutral/Wall 1.jpg","neutral","↓","left-upper-mid","↓","1"
"","","","","","html-keyboard-response","90","2.1.0","94504","","null","
            <div class=""trial-screen"">
                <div class=""fixation-modern"">+</div>
            </div>
        ","null","","","","","",""
"","","","","","html-keyboard-response","91","2.1.0","95243","","740","
        <div class=""progress-bar"" style=""width: 93.33333333333333%;""></div>
        <div class=""trial-counter"">Trial 112 / 120</div>
        <div class=""trial-screen"">
            <div class=""center-image-container"">
                <img src=""images/high_pos/Beach 1.jpg"" class=""center-image"">
            </div>
            <div class=""arrow-subtle"" style=""left: 92%; top: 65%; transform: translate(-50%, -50%);"">
                ↓
            </div>
        </div>
    ","ArrowDown","images/high_pos/Beach 1.jpg","high_arousal_positive","↓","right-lower","↓","1"
"","","","","","html-keyboard-response","92","2.1.0","96059","","null","
            <div class=""trial-screen"">
                <div class=""fixation-modern"">+</div>
            </div>
        ","null","","","","","",""
"","","","","","html-keyboard-response","93","2.1.0","97685","","1625","
        <div class=""progress-bar"" style=""width: 66.66666666666666%;""></div>
        <div class=""trial-counter"">Trial 80 / 120</div>
        <div class=""trial-screen"">
            <div class=""center-image-container"">
                <img src=""images/high_neg/War 8.jpg"" class=""center-image"">
            </div>
            <div class=""arrow-subtle"" style=""left: 8%; top: 15%; transform: translate(-50%, -50%);"">
                →
            </div>
        </div>
    ","ArrowRight","images/high_neg/War 8.jpg","high_arousal_negative","→","left-top","→","1"
"","","","","","html-keyboard-response","94","2.1.0","98494","","null","
            <div class=""trial-screen"">
                <div class=""fixation-modern"">+</div>
            </div>
        ","null","","","","","",""
"","","","","","html-keyboard-response","95","2.1.0","99158","","663","
        <div class=""progress-bar"" style=""width: 14.166666666666666%;""></div>
        <div class=""trial-counter"">Trial 17 / 120</div>
        <div class=""trial-screen"">
            <div class=""center-image-container"">
                <img src=""images/neutral/Wall 2.jpg"" class=""center-image"">
            </div>
            <div class=""arrow-subtle"" style=""left: 92%; top: 85%; transform: translate(-50%, -50%);"">
                ←
            </div>
        </div>
    ","ArrowRight","images/neutral/Wall 2.jpg","neutral","←","right-bottom","→","0"
"","","","","","html-keyboard-response","96","2.1.0","99958","","null","
            <div class=""trial-screen"">
                <div class=""fixation-modern"">+</div>
            </div>
        ","null","","","","","",""
"","","","","","html-keyboard-response","97","2.1.0","100701","","741","
        <div class=""progress-bar"" style=""width: 54.166666666666664%;""></div>
        <div class=""trial-counter"">Trial 65 / 120</div>
        <div class=""trial-screen"">
            <div class=""center-image-container"">
                <img src=""images/high_neg/Injury 4.jpg"" class=""center-image"">
            </div>
            <div class=""arrow-subtle"" style=""left: 92%; top: 15%; transform: translate(-50%, -50%);"">
                ↑
            </div>
        </div>
    ","ArrowUp","images/high_neg/Injury 4.jpg","high_arousal_negative","↑","right-top","↑","1"
"","","","","","html-keyboard-response","98","2.1.0","101505","","null","
            <div class=""trial-screen"">
                <div class=""fixation-modern"">+</div>
            </div>
        ","null","","","","","",""
"","","","","","html-keyboard-response","99","2.1.0","102189","","683","
        <div class=""progress-bar"" style=""width: 11.666666666666666%;""></div>
        <div class=""trial-counter"">Trial 14 / 120</div>
        <div class=""trial-screen"">
            <div class=""center-image-container"">
                <img src=""images/neutral/Paper 3.jpg"" class=""center-image"">
            </div>
            <div class=""arrow-subtle"" style=""left: 92%; top: 15%; transform: translate(-50%, -50%);"">
                ↑
            </div>
        </div>
    ","ArrowUp","images/neutral/Paper 3.jpg","neutral","↑","right-top","↑","1"
"","","","","","html-keyboard-response","100","2.1.0","103004","","null","
            <div class=""trial-screen"">
                <div class=""fixation-modern"">+</div>
            </div>
        ","null","","","","","",""
"","","","","","html-keyboard-response","101","2.1.0","103746","","740","
        <div class=""progress-bar"" style=""width: 56.666666666666664%;""></div>
        <div class=""trial-counter"">Trial 68 / 120</div>
        <div class=""trial-screen"">
            <div class=""center-image-container"">
                <img src=""images/high_neg/Fire 5.jpg"" class=""center-image"">
            </div>
            <div class=""arrow-subtle"" style=""left: 8%; top: 35%; transform: translate(-50%, -50%);"">
                ↓
            </div>
        </div>
    ","ArrowDown","images/high_neg/Fire 5.jpg","high_arousal_negative","↓","left-upper-mid","↓","1"
"","","","","","html-keyboard-response","102","2.1.0","104549","","null","
            <div class=""trial-screen"">
                <div class=""fixation-modern"">+</div>
            </div>
        ","null","","","","","",""
"","","","","","html-keyboard-response","103","2.1.0","105219","","669","
        <div class=""progress-bar"" style=""width: 3.3333333333333335%;""></div>
        <div class=""trial-counter"">Trial 4 / 120</div>
        <div class=""trial-screen"">
            <div class=""center-image-container"">
                <img src=""images/neutral/Bricks 1.jpg"" class=""center-image"">
            </div>
            <div class=""arrow-subtle"" style=""left: 8%; top: 25%; transform: translate(-50%, -50%);"">
                ↑
            </div>
        </div>
    ","ArrowDown","images/neutral/Bricks 1.jpg","neutral","↑","left-upper","↓","0"
"","","","","","html-keyboard-response","104","2.1.0","106022","","null","
            <div class=""trial-screen"">
                <div class=""fixation-modern"">+</div>
            </div>
        ","null","","","","","",""
"","","","","","html-keyboard-response","105","2.1.0","107949","","1926","
        <div class=""progress-bar"" style=""width: 55.833333333333336%;""></div>
        <div class=""trial-counter"">Trial 67 / 120</div>
        <div class=""trial-screen"">
            <div class=""center-image-container"">
                <img src=""images/high_neg/Fire 11.jpg"" class=""center-image"">
            </div>
            <div class=""arrow-subtle"" style=""left: 92%; top: 35%; transform: translate(-50%, -50%);"">
                ↓
            </div>
        </div>
    ","ArrowDown","images/high_neg/Fire 11.jpg","high_arousal_negative","↓","right-upper-mid","↓","1"
"","","","","","html-keyboard-response","106","2.1.0","108762","","null","
            <div class=""trial-screen"">
                <div class=""fixation-modern"">+</div>
            </div>
        ","null","","","","","",""
"","","","","","html-keyboard-response","107","2.1.0","109620","","856","
        <div class=""progress-bar"" style=""width: 43.333333333333336%;""></div>
        <div class=""trial-counter"">Trial 52 / 120</div>
        <div class=""trial-screen"">
            <div class=""center-image-container"">
                <img src=""images/high_neg/Fire 5.jpg"" class=""center-image"">
            </div>
            <div class=""arrow-subtle"" style=""left: 92%; top: 25%; transform: translate(-50%, -50%);"">
                ↑
            </div>
        </div>
    ","ArrowUp","images/high_neg/Fire 5.jpg","high_arousal_negative","↑","right-upper","↑","1"
"","","","","","html-keyboard-response","108","2.1.0","110433","","null","
            <div class=""trial-screen"">
                <div class=""fixation-modern"">+</div>
            </div>
        ","null","","","","","",""
"","","","","","html-keyboard-response","109","2.1.0","111761","","1327","
        <div class=""progress-bar"" style=""width: 27.500000000000004%;""></div>
        <div class=""trial-counter"">Trial 33 / 120</div>
        <div class=""trial-screen"">
            <div class=""center-image-container"">
                <img src=""images/neutral/Wall 2.jpg"" class=""center-image"">
            </div>
            <div class=""arrow-subtle"" style=""left: 92%; top: 25%; transform: translate(-50%, -50%);"">
                ↑
            </div>
        </div>
    ","ArrowUp","images/neutral/Wall 2.jpg","neutral","↑","right-upper","↑","1"
"","","","","","html-keyboard-response","110","2.1.0","112570","","null","
            <div class=""trial-screen"">
                <div class=""fixation-modern"">+</div>
            </div>
        ","null","","","","","",""
"","","","","","html-keyboard-response","111","2.1.0","114512","","1941","
        <div class=""progress-bar"" style=""width: 50.83333333333333%;""></div>
        <div class=""trial-counter"">Trial 61 / 120</div>
        <div class=""trial-screen"">
            <div class=""center-image-container"">
                <img src=""images/high_neg/Dummy 1.jpg"" class=""center-image"">
            </div>
            <div class=""arrow-subtle"" style=""left: 92%; top: 75%; transform: translate(-50%, -50%);"">
                →
            </div>
        </div>
    ","ArrowRight","images/high_neg/Dummy 1.jpg","high_arousal_negative","→","right-bottom-upper","→","1"
"","","","","","html-keyboard-response","112","2.1.0","115325","","null","
            <div class=""trial-screen"">
                <div class=""fixation-modern"">+</div>
            </div>
        ","null","","","","","",""
"","","","","","html-keyboard-response","113","2.1.0","116009","","682","
        <div class=""progress-bar"" style=""width: 25.833333333333336%;""></div>
        <div class=""trial-counter"">Trial 31 / 120</div>
        <div class=""trial-screen"">
            <div class=""center-image-container"">
                <img src=""images/neutral/Paperclips 3.jpg"" class=""center-image"">
            </div>
            <div class=""arrow-subtle"" style=""left: 92%; top: 25%; transform: translate(-50%, -50%);"">
                ↓
            </div>
        </div>
    ","ArrowDown","images/neutral/Paperclips 3.jpg","neutral","↓","right-upper","↓","1"
"","","","","","html-keyboard-response","114","2.1.0","116820","","null","
            <div class=""trial-screen"">
                <div class=""fixation-modern"">+</div>
            </div>
        ","null","","","","","",""
"","","","","","html-keyboard-response","115","2.1.0","118902","","2080","
        <div class=""progress-bar"" style=""width: 37.5%;""></div>
        <div class=""trial-counter"">Trial 45 / 120</div>
        <div class=""trial-screen"">
            <div class=""center-image-container"">
                <img src=""images/high_neg/Dummy 1.jpg"" class=""center-image"">
            </div>
            <div class=""arrow-subtle"" style=""left: 8%; top: 65%; transform: translate(-50%, -50%);"">
                ↓
            </div>
        </div>
    ","ArrowDown","images/high_neg/Dummy 1.jpg","high_arousal_negative","↓","left-lower","↓","1"
"","","","","","html-keyboard-response","116","2.1.0","119709","","null","
            <div class=""trial-screen"">
                <div class=""fixation-modern"">+</div>
            </div>
        ","null","","","","","",""
"","","","","","html-keyboard-response","117","2.1.0","120722","","1013","
        <div class=""progress-bar"" style=""width: 10.833333333333334%;""></div>
        <div class=""trial-counter"">Trial 13 / 120</div>
        <div class=""trial-screen"">
            <div class=""center-image-container"">
                <img src=""images/neutral/Cotton swabs 3.jpg"" class=""center-image"">
            </div>
            <div class=""arrow-subtle"" style=""left: 92%; top: 85%; transform: translate(-50%, -50%);"">
                ↑
            </div>
        </div>
    ","ArrowUp","images/neutral/Cotton swabs 3.jpg","neutral","↑","right-bottom","↑","1"
"","","","","","html-keyboard-response","118","2.1.0","121536","","null","
            <div class=""trial-screen"">
                <div class=""fixation-modern"">+</div>
            </div>
        ","null","","","","","",""
"","","","","","html-keyboard-response","119","2.1.0","123753","","2216","
        <div class=""progress-bar"" style=""width: 83.33333333333334%;""></div>
        <div class=""trial-counter"">Trial 100 / 120</div>
        <div class=""trial-screen"">
            <div class=""center-image-container"">
                <img src=""images/high_pos/Rainbow 2.jpg"" class=""center-image"">
            </div>
            <div class=""arrow-subtle"" style=""left: 8%; top: 45%; transform: translate(-50%, -50%);"">
                ←
            </div>
        </div>
    ","ArrowLeft","images/high_pos/Rainbow 2.jpg","high_arousal_positive","←","left-mid","←","1"
"","","","","","html-keyboard-response","120","2.1.0","124563","","null","
            <div class=""trial-screen"">
                <div class=""fixation-modern"">+</div>
            </div>
        ","null","","","","","",""
"","","","","","html-keyboard-response","121","2.1.0","125312","","747","
        <div class=""progress-bar"" style=""width: 19.166666666666668%;""></div>
        <div class=""trial-counter"">Trial 23 / 120</div>
        <div class=""trial-screen"">
            <div class=""center-image-container"">
                <img src=""images/neutral/Paperclips 3.jpg"" class=""center-image"">
            </div>
            <div class=""arrow-subtle"" style=""left: 92%; top: 75%; transform: translate(-50%, -50%);"">
                ↓
            </div>
        </div>
    ","ArrowDown","images/neutral/Paperclips 3.jpg","neutral","↓","right-bottom-upper","↓","1"
"","","","","","html-keyboard-response","122","2.1.0","126121","","null","
            <div class=""trial-screen"">
                <div class=""fixation-modern"">+</div>
            </div>
        ","null","","","","","",""
"","","","","","html-keyboard-response","123","2.1.0","126850","","728","
        <div class=""progress-bar"" style=""width: 29.166666666666668%;""></div>
        <div class=""trial-counter"">Trial 35 / 120</div>
        <div class=""trial-screen"">
            <div class=""center-image-container"">
                <img src=""images/neutral/Wall 3.jpg"" class=""center-image"">
            </div>
            <div class=""arrow-subtle"" style=""left: 92%; top: 75%; transform: translate(-50%, -50%);"">
                →
            </div>
        </div>
    ","ArrowRight","images/neutral/Wall 3.jpg","neutral","→","right-bottom-upper","→","1"
"","","","","","html-keyboard-response","124","2.1.0","127664","","null","
            <div class=""trial-screen"">
                <div class=""fixation-modern"">+</div>
            </div>
        ","null","","","","","",""
"","","","","","html-keyboard-response","125","2.1.0","129460","","1794","
        <div class=""progress-bar"" style=""width: 48.333333333333336%;""></div>
        <div class=""trial-counter"">Trial 58 / 120</div>
        <div class=""trial-screen"">
            <div class=""center-image-container"">
                <img src=""images/high_neg/Explosion 5.jpg"" class=""center-image"">
            </div>
            <div class=""arrow-subtle"" style=""left: 8%; top: 75%; transform: translate(-50%, -50%);"">
                ↓
            </div>
        </div>
    ","ArrowDown","images/high_neg/Explosion 5.jpg","high_arousal_negative","↓","left-bottom-upper","↓","1"
"","","","","","html-keyboard-response","126","2.1.0","130272","","null","
            <div class=""trial-screen"">
                <div class=""fixation-modern"">+</div>
            </div>
        ","null","","","","","",""
"","","","","","html-keyboard-response","127","2.1.0","131065","","792","
        <div class=""progress-bar"" style=""width: 70.83333333333334%;""></div>
        <div class=""trial-counter"">Trial 85 / 120</div>
        <div class=""trial-screen"">
            <div class=""center-image-container"">
                <img src=""images/high_pos/Dog 18.jpg"" class=""center-image"">
            </div>
            <div class=""arrow-subtle"" style=""left: 8%; top: 35%; transform: translate(-50%, -50%);"">
                ↑
            </div>
        </div>
    ","ArrowUp","images/high_pos/Dog 18.jpg","high_arousal_positive","↑","left-upper-mid","↑","1"
"","","","","","html-keyboard-response","128","2.1.0","131876","","null","
            <div class=""trial-screen"">
                <div class=""fixation-modern"">+</div>
            </div>
        ","null","","","","","",""
"","","","","","html-keyboard-response","129","2.1.0","132677","","799","
        <div class=""progress-bar"" style=""width: 28.333333333333332%;""></div>
        <div class=""trial-counter"">Trial 34 / 120</div>
        <div class=""trial-screen"">
            <div class=""center-image-container"">
                <img src=""images/neutral/Wall 1.jpg"" class=""center-image"">
            </div>
            <div class=""arrow-subtle"" style=""left: 92%; top: 25%; transform: translate(-50%, -50%);"">
                ↓
            </div>
        </div>
    ","ArrowDown","images/neutral/Wall 1.jpg","neutral","↓","right-upper","↓","1"
"","","","","","html-keyboard-response","130","2.1.0","133481","","null","
            <div class=""trial-screen"">
                <div class=""fixation-modern"">+</div>
            </div>
        ","null","","","","","",""
"","","","","","html-keyboard-response","131","2.1.0","134148","","665","
        <div class=""progress-bar"" style=""width: 24.166666666666668%;""></div>
        <div class=""trial-counter"">Trial 29 / 120</div>
        <div class=""trial-screen"">
            <div class=""center-image-container"">
                <img src=""images/neutral/Cotton swabs 3.jpg"" class=""center-image"">
            </div>
            <div class=""arrow-subtle"" style=""left: 8%; top: 55%; transform: translate(-50%, -50%);"">
                ↑
            </div>
        </div>
    ","ArrowUp","images/neutral/Cotton swabs 3.jpg","neutral","↑","left-mid-lower","↑","1"
"","","","","","html-keyboard-response","132","2.1.0","134963","","null","
            <div class=""trial-screen"">
                <div class=""fixation-modern"">+</div>
            </div>
        ","null","","","","","",""
"","","","","","html-keyboard-response","133","2.1.0","136113","","1149","
        <div class=""progress-bar"" style=""width: 85%;""></div>
        <div class=""trial-counter"">Trial 102 / 120</div>
        <div class=""trial-screen"">
            <div class=""center-image-container"">
                <img src=""images/high_pos/Cat 5.jpg"" class=""center-image"">
            </div>
            <div class=""arrow-subtle"" style=""left: 8%; top: 75%; transform: translate(-50%, -50%);"">
                ↓
            </div>
        </div>
    ","ArrowDown","images/high_pos/Cat 5.jpg","high_arousal_positive","↓","left-bottom-upper","↓","1"
"","","","","","html-keyboard-response","134","2.1.0","136928","","null","
            <div class=""trial-screen"">
                <div class=""fixation-modern"">+</div>
            </div>
        ","null","","","","","",""
"","","","","","html-keyboard-response","135","2.1.0","137547","","618","
        <div class=""progress-bar"" style=""width: 30%;""></div>
        <div class=""trial-counter"">Trial 36 / 120</div>
        <div class=""trial-screen"">
            <div class=""center-image-container"">
                <img src=""images/neutral/Bricks 1.jpg"" class=""center-image"">
            </div>
            <div class=""arrow-subtle"" style=""left: 8%; top: 55%; transform: translate(-50%, -50%);"">
                ↓
            </div>
        </div>
    ","ArrowDown","images/neutral/Bricks 1.jpg","neutral","↓","left-mid-lower","↓","1"
"","","","","","html-keyboard-response","136","2.1.0","138359","","null","
            <div class=""trial-screen"">
                <div class=""fixation-modern"">+</div>
            </div>
        ","null","","","","","",""
"","","","","","html-keyboard-response","137","2.1.0","139155","","796","
        <div class=""progress-bar"" style=""width: 95%;""></div>
        <div class=""trial-counter"">Trial 114 / 120</div>
        <div class=""trial-screen"">
            <div class=""center-image-container"">
                <img src=""images/high_pos/Dog 6.jpg"" class=""center-image"">
            </div>
            <div class=""arrow-subtle"" style=""left: 8%; top: 15%; transform: translate(-50%, -50%);"">
                →
            </div>
        </div>
    ","ArrowRight","images/high_pos/Dog 6.jpg","high_arousal_positive","→","left-top","→","1"
"","","","","","html-keyboard-response","138","2.1.0","139971","","null","
            <div class=""trial-screen"">
                <div class=""fixation-modern"">+</div>
            </div>
        ","null","","","","","",""
"","","","","","html-keyboard-response","139","2.1.0","140623","","650","
        <div class=""progress-bar"" style=""width: 4.166666666666666%;""></div>
        <div class=""trial-counter"">Trial 5 / 120</div>
        <div class=""trial-screen"">
            <div class=""center-image-container"">
                <img src=""images/neutral/Cotton swabs 3.jpg"" class=""center-image"">
            </div>
            <div class=""arrow-subtle"" style=""left: 8%; top: 35%; transform: translate(-50%, -50%);"">
                →
            </div>
        </div>
    ","ArrowRight","images/neutral/Cotton swabs 3.jpg","neutral","→","left-upper-mid","→","1"
"","","","","","html-keyboard-response","140","2.1.0","141439","","null","
            <div class=""trial-screen"">
                <div class=""fixation-modern"">+</div>
            </div>
        ","null","","","","","",""
"","","","","","html-keyboard-response","141","2.1.0","142101","","662","
        <div class=""progress-bar"" style=""width: 73.33333333333333%;""></div>
        <div class=""trial-counter"">Trial 88 / 120</div>
        <div class=""trial-screen"">
            <div class=""center-image-container"">
                <img src=""images/high_pos/Beach 1.jpg"" class=""center-image"">
            </div>
            <div class=""arrow-subtle"" style=""left: 92%; top: 35%; transform: translate(-50%, -50%);"">
                ↑
            </div>
        </div>
    ","ArrowUp","images/high_pos/Beach 1.jpg","high_arousal_positive","↑","right-upper-mid","↑","1"
"","","","","","html-keyboard-response","142","2.1.0","142911","","null","
            <div class=""trial-screen"">
                <div class=""fixation-modern"">+</div>
            </div>
        ","null","","","","","",""
"","","","","","html-keyboard-response","143","2.1.0","144147","","1235","
        <div class=""progress-bar"" style=""width: 53.333333333333336%;""></div>
        <div class=""trial-counter"">Trial 64 / 120</div>
        <div class=""trial-screen"">
            <div class=""center-image-container"">
                <img src=""images/high_neg/War 8.jpg"" class=""center-image"">
            </div>
            <div class=""arrow-subtle"" style=""left: 92%; top: 15%; transform: translate(-50%, -50%);"">
                ↑
            </div>
        </div>
    ","ArrowUp","images/high_neg/War 8.jpg","high_arousal_negative","↑","right-top","↑","1"
"","","","","","html-keyboard-response","144","2.1.0","144957","","null","
            <div class=""trial-screen"">
                <div class=""fixation-modern"">+</div>
            </div>
        ","null","","","","","",""
"","","","","","html-keyboard-response","145","2.1.0","145947","","988","
        <div class=""progress-bar"" style=""width: 75.83333333333333%;""></div>
        <div class=""trial-counter"">Trial 91 / 120</div>
        <div class=""trial-screen"">
            <div class=""center-image-container"">
                <img src=""images/high_pos/Fireworks 2.jpg"" class=""center-image"">
            </div>
            <div class=""arrow-subtle"" style=""left: 8%; top: 85%; transform: translate(-50%, -50%);"">
                ↑
            </div>
        </div>
    ","ArrowUp","images/high_pos/Fireworks 2.jpg","high_arousal_positive","↑","left-bottom","↑","1"
"","","","","","html-keyboard-response","146","2.1.0","146750","","null","
            <div class=""trial-screen"">
                <div class=""fixation-modern"">+</div>
            </div>
        ","null","","","","","",""
"","","","","","html-keyboard-response","147","2.1.0","147709","","957","
        <div class=""progress-bar"" style=""width: 100%;""></div>
        <div class=""trial-counter"">Trial 120 / 120</div>
        <div class=""trial-screen"">
            <div class=""center-image-container"">
                <img src=""images/high_pos/Beach 1.jpg"" class=""center-image"">
            </div>
            <div class=""arrow-subtle"" style=""left: 8%; top: 25%; transform: translate(-50%, -50%);"">
                →
            </div>
        </div>
    ","ArrowRight","images/high_pos/Beach 1.jpg","high_arousal_positive","→","left-upper","→","1"
"","","","","","html-keyboard-response","148","2.1.0","148514","","null","
            <div class=""trial-screen"">
                <div class=""fixation-modern"">+</div>
            </div>
        ","null","","","","","",""
"","","","","","html-keyboard-response","149","2.1.0","149423","","908","
        <div class=""progress-bar"" style=""width: 81.66666666666667%;""></div>
        <div class=""trial-counter"">Trial 98 / 120</div>
        <div class=""trial-screen"">
            <div class=""center-image-container"">
                <img src=""images/high_pos/Dog 6.jpg"" class=""center-image"">
            </div>
            <div class=""arrow-subtle"" style=""left: 8%; top: 15%; transform: translate(-50%, -50%);"">
                ←
            </div>
        </div>
    ","ArrowLeft","images/high_pos/Dog 6.jpg","high_arousal_positive","←","left-top","←","1"
"","","","","","html-keyboard-response","150","2.1.0","150233","","null","
            <div class=""trial-screen"">
                <div class=""fixation-modern"">+</div>
            </div>
        ","null","","","","","",""
"","","","","","html-keyboard-response","151","2.1.0","151156","","923","
        <div class=""progress-bar"" style=""width: 20.833333333333336%;""></div>
        <div class=""trial-counter"">Trial 25 / 120</div>
        <div class=""trial-screen"">
            <div class=""center-image-container"">
                <img src=""images/neutral/Wall 2.jpg"" class=""center-image"">
            </div>
            <div class=""arrow-subtle"" style=""left: 92%; top: 55%; transform: translate(-50%, -50%);"">
                ↓
            </div>
        </div>
    ","ArrowDown","images/neutral/Wall 2.jpg","neutral","↓","right-mid-lower","↓","1"
"","","","","","html-keyboard-response","152","2.1.0","151972","","null","
            <div class=""trial-screen"">
                <div class=""fixation-modern"">+</div>
            </div>
        ","null","","","","","",""
"","","","","","html-keyboard-response","153","2.1.0","153435","","1463","
        <div class=""progress-bar"" style=""width: 39.166666666666664%;""></div>
        <div class=""trial-counter"">Trial 47 / 120</div>
        <div class=""trial-screen"">
            <div class=""center-image-container"">
                <img src=""images/high_neg/Miserable pose 3.jpg"" class=""center-image"">
            </div>
            <div class=""arrow-subtle"" style=""left: 8%; top: 85%; transform: translate(-50%, -50%);"">
                ↓
            </div>
        </div>
    ","ArrowDown","images/high_neg/Miserable pose 3.jpg","high_arousal_negative","↓","left-bottom","↓","1"
"","","","","","html-keyboard-response","154","2.1.0","154240","","null","
            <div class=""trial-screen"">
                <div class=""fixation-modern"">+</div>
            </div>
        ","null","","","","","",""
"","","","","","html-keyboard-response","155","2.1.0","155083","","842","
        <div class=""progress-bar"" style=""width: 90%;""></div>
        <div class=""trial-counter"">Trial 108 / 120</div>
        <div class=""trial-screen"">
            <div class=""center-image-container"">
                <img src=""images/high_pos/Rainbow 2.jpg"" class=""center-image"">
            </div>
            <div class=""arrow-subtle"" style=""left: 92%; top: 75%; transform: translate(-50%, -50%);"">
                →
            </div>
        </div>
    ","ArrowRight","images/high_pos/Rainbow 2.jpg","high_arousal_positive","→","right-bottom-upper","→","1"
"","","","","","html-keyboard-response","156","2.1.0","155892","","null","
            <div class=""trial-screen"">
                <div class=""fixation-modern"">+</div>
            </div>
        ","null","","","","","",""
"","","","","","html-keyboard-response","157","2.1.0","156757","","864","
        <div class=""progress-bar"" style=""width: 2.5%;""></div>
        <div class=""trial-counter"">Trial 3 / 120</div>
        <div class=""trial-screen"">
            <div class=""center-image-container"">
                <img src=""images/neutral/Wall 3.jpg"" class=""center-image"">
            </div>
            <div class=""arrow-subtle"" style=""left: 8%; top: 15%; transform: translate(-50%, -50%);"">
                ↓
            </div>
        </div>
    ","ArrowDown","images/neutral/Wall 3.jpg","neutral","↓","left-top","↓","1"
"","","","","","html-keyboard-response","158","2.1.0","157561","","null","
            <div class=""trial-screen"">
                <div class=""fixation-modern"">+</div>
            </div>
        ","null","","","","","",""
"","","","","","html-keyboard-response","159","2.1.0","158453","","890","
        <div class=""progress-bar"" style=""width: 22.5%;""></div>
        <div class=""trial-counter"">Trial 27 / 120</div>
        <div class=""trial-screen"">
            <div class=""center-image-container"">
                <img src=""images/neutral/Wall 3.jpg"" class=""center-image"">
            </div>
            <div class=""arrow-subtle"" style=""left: 8%; top: 85%; transform: translate(-50%, -50%);"">
                ↑
            </div>
        </div>
    ","ArrowUp","images/neutral/Wall 3.jpg","neutral","↑","left-bottom","↑","1"
"","","","","","html-keyboard-response","160","2.1.0","159263","","null","
            <div class=""trial-screen"">
                <div class=""fixation-modern"">+</div>
            </div>
        ","null","","","","","",""
"","","","","","html-keyboard-response","161","2.1.0","160273","","1008","
        <div class=""progress-bar"" style=""width: 99.16666666666667%;""></div>
        <div class=""trial-counter"">Trial 119 / 120</div>
        <div class=""trial-screen"">
            <div class=""center-image-container"">
                <img src=""images/high_pos/Fireworks 6.jpg"" class=""center-image"">
            </div>
            <div class=""arrow-subtle"" style=""left: 8%; top: 65%; transform: translate(-50%, -50%);"">
                ←
            </div>
        </div>
    ","ArrowLeft","images/high_pos/Fireworks 6.jpg","high_arousal_positive","←","left-lower","←","1"
"","","","","","html-keyboard-response","162","2.1.0","161073","","null","
            <div class=""trial-screen"">
                <div class=""fixation-modern"">+</div>
            </div>
        ","null","","","","","",""
"","","","","","html-keyboard-response","163","2.1.0","162731","","1656","
        <div class=""progress-bar"" style=""width: 16.666666666666664%;""></div>
        <div class=""trial-counter"">Trial 20 / 120</div>
        <div class=""trial-screen"">
            <div class=""center-image-container"">
                <img src=""images/neutral/Bricks 1.jpg"" class=""center-image"">
            </div>
            <div class=""arrow-subtle"" style=""left: 92%; top: 85%; transform: translate(-50%, -50%);"">
                ↓
            </div>
        </div>
    ","ArrowDown","images/neutral/Bricks 1.jpg","neutral","↓","right-bottom","↓","1"
"","","","","","html-keyboard-response","164","2.1.0","163534","","null","
            <div class=""trial-screen"">
                <div class=""fixation-modern"">+</div>
            </div>
        ","null","","","","","",""
"","","","","","html-keyboard-response","165","2.1.0","164881","","1345","
        <div class=""progress-bar"" style=""width: 45.83333333333333%;""></div>
        <div class=""trial-counter"">Trial 55 / 120</div>
        <div class=""trial-screen"">
            <div class=""center-image-container"">
                <img src=""images/high_neg/Miserable pose 3.jpg"" class=""center-image"">
            </div>
            <div class=""arrow-subtle"" style=""left: 8%; top: 15%; transform: translate(-50%, -50%);"">
                ↓
            </div>
        </div>
    ","ArrowDown","images/high_neg/Miserable pose 3.jpg","high_arousal_negative","↓","left-top","↓","1"
"","","","","","html-keyboard-response","166","2.1.0","165692","","null","
            <div class=""trial-screen"">
                <div class=""fixation-modern"">+</div>
            </div>
        ","null","","","","","",""
"","","","","","html-keyboard-response","167","2.1.0","167934","","2241","
        <div class=""progress-bar"" style=""width: 60%;""></div>
        <div class=""trial-counter"">Trial 72 / 120</div>
        <div class=""trial-screen"">
            <div class=""center-image-container"">
                <img src=""images/high_neg/War 8.jpg"" class=""center-image"">
            </div>
            <div class=""arrow-subtle"" style=""left: 8%; top: 85%; transform: translate(-50%, -50%);"">
                ←
            </div>
        </div>
    ","ArrowLeft","images/high_neg/War 8.jpg","high_arousal_negative","←","left-bottom","←","1"
"","","","","","html-keyboard-response","168","2.1.0","168745","","null","
            <div class=""trial-screen"">
                <div class=""fixation-modern"">+</div>
            </div>
        ","null","","","","","",""
"","","","","","html-keyboard-response","169","2.1.0","169753","","1007","
        <div class=""progress-bar"" style=""width: 13.333333333333334%;""></div>
        <div class=""trial-counter"">Trial 16 / 120</div>
        <div class=""trial-screen"">
            <div class=""center-image-container"">
                <img src=""images/neutral/Office supplies 2.jpg"" class=""center-image"">
            </div>
            <div class=""arrow-subtle"" style=""left: 8%; top: 85%; transform: translate(-50%, -50%);"">
                ←
            </div>
        </div>
    ","ArrowLeft","images/neutral/Office supplies 2.jpg","neutral","←","left-bottom","←","1"
"","","","","","html-keyboard-response","170","2.1.0","170556","","null","
            <div class=""trial-screen"">
                <div class=""fixation-modern"">+</div>
            </div>
        ","null","","","","","",""
"","","","","","html-keyboard-response","171","2.1.0","171573","","1017","
        <div class=""progress-bar"" style=""width: 68.33333333333333%;""></div>
        <div class=""trial-counter"">Trial 82 / 120</div>
        <div class=""trial-screen"">
            <div class=""center-image-container"">
                <img src=""images/high_pos/Dog 6.jpg"" class=""center-image"">
            </div>
            <div class=""arrow-subtle"" style=""left: 92%; top: 85%; transform: translate(-50%, -50%);"">
                ↓
            </div>
        </div>
    ","ArrowDown","images/high_pos/Dog 6.jpg","high_arousal_positive","↓","right-bottom","↓","1"
"","","","","","html-keyboard-response","172","2.1.0","172379","","null","
            <div class=""trial-screen"">
                <div class=""fixation-modern"">+</div>
            </div>
        ","null","","","","","",""
"","","","","","html-keyboard-response","173","2.1.0","173406","","1025","
        <div class=""progress-bar"" style=""width: 87.5%;""></div>
        <div class=""trial-counter"">Trial 105 / 120</div>
        <div class=""trial-screen"">
            <div class=""center-image-container"">
                <img src=""images/high_pos/Nude couple 5.jpg"" class=""center-image"">
            </div>
            <div class=""arrow-subtle"" style=""left: 92%; top: 45%; transform: translate(-50%, -50%);"">
                ↑
            </div>
        </div>
    ","ArrowUp","images/high_pos/Nude couple 5.jpg","high_arousal_positive","↑","right-mid","↑","1"
"","","","","","html-keyboard-response","174","2.1.0","174207","","null","
            <div class=""trial-screen"">
                <div class=""fixation-modern"">+</div>
            </div>
        ","null","","","","","",""
"","","","","","html-keyboard-response","175","2.1.0","176374","","2167","
        <div class=""progress-bar"" style=""width: 76.66666666666667%;""></div>
        <div class=""trial-counter"">Trial 92 / 120</div>
        <div class=""trial-screen"">
            <div class=""center-image-container"">
                <img src=""images/high_pos/Rainbow 2.jpg"" class=""center-image"">
            </div>
            <div class=""arrow-subtle"" style=""left: 92%; top: 75%; transform: translate(-50%, -50%);"">
                →
            </div>
        </div>
    ","ArrowRight","images/high_pos/Rainbow 2.jpg","high_arousal_positive","→","right-bottom-upper","→","1"
"","","","","","html-keyboard-response","176","2.1.0","177189","","null","
            <div class=""trial-screen"">
                <div class=""fixation-modern"">+</div>
            </div>
        ","null","","","","","",""
"","","","","","html-keyboard-response","177","2.1.0","178666","","1475","
        <div class=""progress-bar"" style=""width: 38.333333333333336%;""></div>
        <div class=""trial-counter"">Trial 46 / 120</div>
        <div class=""trial-screen"">
            <div class=""center-image-container"">
                <img src=""images/high_neg/Fire 9.jpg"" class=""center-image"">
            </div>
            <div class=""arrow-subtle"" style=""left: 8%; top: 25%; transform: translate(-50%, -50%);"">
                ↑
            </div>
        </div>
    ","ArrowUp","images/high_neg/Fire 9.jpg","high_arousal_negative","↑","left-upper","↑","1"
"","","","","","html-keyboard-response","178","2.1.0","179468","","null","
            <div class=""trial-screen"">
                <div class=""fixation-modern"">+</div>
            </div>
        ","null","","","","","",""
"","","","","","html-keyboard-response","179","2.1.0","180511","","1042","
        <div class=""progress-bar"" style=""width: 98.33333333333333%;""></div>
        <div class=""trial-counter"">Trial 118 / 120</div>
        <div class=""trial-screen"">
            <div class=""center-image-container"">
                <img src=""images/high_pos/Cat 5.jpg"" class=""center-image"">
            </div>
            <div class=""arrow-subtle"" style=""left: 8%; top: 15%; transform: translate(-50%, -50%);"">
                ←
            </div>
        </div>
    ","ArrowLeft","images/high_pos/Cat 5.jpg","high_arousal_positive","←","left-top","←","1"
"","","","","","html-keyboard-response","180","2.1.0","181312","","null","
            <div class=""trial-screen"">
                <div class=""fixation-modern"">+</div>
            </div>
        ","null","","","","","",""
"","","","","","html-keyboard-response","181","2.1.0","182025","","713","
        <div class=""progress-bar"" style=""width: 32.5%;""></div>
        <div class=""trial-counter"">Trial 39 / 120</div>
        <div class=""trial-screen"">
            <div class=""center-image-container"">
                <img src=""images/neutral/Paperclips 3.jpg"" class=""center-image"">
            </div>
            <div class=""arrow-subtle"" style=""left: 92%; top: 65%; transform: translate(-50%, -50%);"">
                →
            </div>
        </div>
    ","ArrowRight","images/neutral/Paperclips 3.jpg","neutral","→","right-lower","→","1"
"","","","","","html-keyboard-response","182","2.1.0","182935","","null","
            <div class=""trial-screen"">
                <div class=""fixation-modern"">+</div>
            </div>
        ","null","","","","","",""
"","","","","","html-keyboard-response","183","2.1.0","183656","","720","
        <div class=""progress-bar"" style=""width: 96.66666666666667%;""></div>
        <div class=""trial-counter"">Trial 116 / 120</div>
        <div class=""trial-screen"">
            <div class=""center-image-container"">
                <img src=""images/high_pos/Rainbow 2.jpg"" class=""center-image"">
            </div>
            <div class=""arrow-subtle"" style=""left: 8%; top: 35%; transform: translate(-50%, -50%);"">
                ↓
            </div>
        </div>
    ","ArrowDown","images/high_pos/Rainbow 2.jpg","high_arousal_positive","↓","left-upper-mid","↓","1"
"","","","","","html-keyboard-response","184","2.1.0","184462","","null","
            <div class=""trial-screen"">
                <div class=""fixation-modern"">+</div>
            </div>
        ","null","","","","","",""
"","","","","","html-keyboard-response","185","2.1.0","185638","","1173","
        <div class=""progress-bar"" style=""width: 89.16666666666667%;""></div>
        <div class=""trial-counter"">Trial 107 / 120</div>
        <div class=""trial-screen"">
            <div class=""center-image-container"">
                <img src=""images/high_pos/Fireworks 2.jpg"" class=""center-image"">
            </div>
            <div class=""arrow-subtle"" style=""left: 8%; top: 35%; transform: translate(-50%, -50%);"">
                ←
            </div>
        </div>
    ","ArrowLeft","images/high_pos/Fireworks 2.jpg","high_arousal_positive","←","left-upper-mid","←","1"
"","","","","","html-keyboard-response","186","2.1.0","186446","","null","
            <div class=""trial-screen"">
                <div class=""fixation-modern"">+</div>
            </div>
        ","null","","","","","",""
"","","","","","html-keyboard-response","187","2.1.0","187904","","1457","
        <div class=""progress-bar"" style=""width: 59.166666666666664%;""></div>
        <div class=""trial-counter"">Trial 71 / 120</div>
        <div class=""trial-screen"">
            <div class=""center-image-container"">
                <img src=""images/high_neg/Miserable pose 3.jpg"" class=""center-image"">
            </div>
            <div class=""arrow-subtle"" style=""left: 92%; top: 35%; transform: translate(-50%, -50%);"">
                ↑
            </div>
        </div>
    ","ArrowUp","images/high_neg/Miserable pose 3.jpg","high_arousal_negative","↑","right-upper-mid","↑","1"
"","","","","","html-keyboard-response","188","2.1.0","188765","","null","
            <div class=""trial-screen"">
                <div class=""fixation-modern"">+</div>
            </div>
        ","null","","","","","",""
"","","","","","html-keyboard-response","189","2.1.0","189862","","1095","
        <div class=""progress-bar"" style=""width: 35%;""></div>
        <div class=""trial-counter"">Trial 42 / 120</div>
        <div class=""trial-screen"">
            <div class=""center-image-container"">
                <img src=""images/high_neg/Explosion 5.jpg"" class=""center-image"">
            </div>
            <div class=""arrow-subtle"" style=""left: 92%; top: 35%; transform: translate(-50%, -50%);"">
                →
            </div>
        </div>
    ","ArrowRight","images/high_neg/Explosion 5.jpg","high_arousal_negative","→","right-upper-mid","→","1"
"","","","","","html-keyboard-response","190","2.1.0","190670","","null","
            <div class=""trial-screen"">
                <div class=""fixation-modern"">+</div>
            </div>
        ","null","","","","","",""
"","","","","","html-keyboard-response","191","2.1.0","191994","","1322","
        <div class=""progress-bar"" style=""width: 35.833333333333336%;""></div>
        <div class=""trial-counter"">Trial 43 / 120</div>
        <div class=""trial-screen"">
            <div class=""center-image-container"">
                <img src=""images/high_neg/Fire 11.jpg"" class=""center-image"">
            </div>
            <div class=""arrow-subtle"" style=""left: 92%; top: 35%; transform: translate(-50%, -50%);"">
                ↓
            </div>
        </div>
    ","ArrowDown","images/high_neg/Fire 11.jpg","high_arousal_negative","↓","right-upper-mid","↓","1"
"","","","","","html-keyboard-response","192","2.1.0","192808","","null","
            <div class=""trial-screen"">
                <div class=""fixation-modern"">+</div>
            </div>
        ","null","","","","","",""
"","","","","","html-keyboard-response","193","2.1.0","193733","","925","
        <div class=""progress-bar"" style=""width: 31.666666666666664%;""></div>
        <div class=""trial-counter"">Trial 38 / 120</div>
        <div class=""trial-screen"">
            <div class=""center-image-container"">
                <img src=""images/neutral/Paper 3.jpg"" class=""center-image"">
            </div>
            <div class=""arrow-subtle"" style=""left: 92%; top: 15%; transform: translate(-50%, -50%);"">
                ↓
            </div>
        </div>
    ","ArrowDown","images/neutral/Paper 3.jpg","neutral","↓","right-top","↓","1"
"","","","","","html-keyboard-response","194","2.1.0","194537","","null","
            <div class=""trial-screen"">
                <div class=""fixation-modern"">+</div>
            </div>
        ","null","","","","","",""
"","","","","","html-keyboard-response","195","2.1.0","195927","","1389","
        <div class=""progress-bar"" style=""width: 90.83333333333333%;""></div>
        <div class=""trial-counter"">Trial 109 / 120</div>
        <div class=""trial-screen"">
            <div class=""center-image-container"">
                <img src=""images/high_pos/Dog 18.jpg"" class=""center-image"">
            </div>
            <div class=""arrow-subtle"" style=""left: 92%; top: 45%; transform: translate(-50%, -50%);"">
                ↑
            </div>
        </div>
    ","ArrowUp","images/high_pos/Dog 18.jpg","high_arousal_positive","↑","right-mid","↑","1"
"","","","","","html-keyboard-response","196","2.1.0","196731","","null","
            <div class=""trial-screen"">
                <div class=""fixation-modern"">+</div>
            </div>
        ","null","","","","","",""
"","","","","","html-keyboard-response","197","2.1.0","197396","","664","
        <div class=""progress-bar"" style=""width: 84.16666666666667%;""></div>
        <div class=""trial-counter"">Trial 101 / 120</div>
        <div class=""trial-screen"">
            <div class=""center-image-container"">
                <img src=""images/high_pos/Dog 18.jpg"" class=""center-image"">
            </div>
            <div class=""arrow-subtle"" style=""left: 92%; top: 15%; transform: translate(-50%, -50%);"">
                ←
            </div>
        </div>
    ","ArrowLeft","images/high_pos/Dog 18.jpg","high_arousal_positive","←","right-top","←","1"
"","","","","","html-keyboard-response","198","2.1.0","198211","","null","
            <div class=""trial-screen"">
                <div class=""fixation-modern"">+</div>
            </div>
        ","null","","","","","",""
"","","","","","html-keyboard-response","199","2.1.0","199011","","799","
        <div class=""progress-bar"" style=""width: 20%;""></div>
        <div class=""trial-counter"">Trial 24 / 120</div>
        <div class=""trial-screen"">
            <div class=""center-image-container"">
                <img src=""images/neutral/Office supplies 2.jpg"" class=""center-image"">
            </div>
            <div class=""arrow-subtle"" style=""left: 92%; top: 15%; transform: translate(-50%, -50%);"">
                ↓
            </div>
        </div>
    ","ArrowDown","images/neutral/Office supplies 2.jpg","neutral","↓","right-top","↓","1"
"","","","","","html-keyboard-response","200","2.1.0","199814","","null","
            <div class=""trial-screen"">
                <div class=""fixation-modern"">+</div>
            </div>
        ","null","","","","","",""
"","","","","","html-keyboard-response","201","2.1.0","201303","","1487","
        <div class=""progress-bar"" style=""width: 63.33333333333333%;""></div>
        <div class=""trial-counter"">Trial 76 / 120</div>
        <div class=""trial-screen"">
            <div class=""center-image-container"">
                <img src=""images/high_neg/Fire 5.jpg"" class=""center-image"">
            </div>
            <div class=""arrow-subtle"" style=""left: 8%; top: 45%; transform: translate(-50%, -50%);"">
                →
            </div>
        </div>
    ","ArrowRight","images/high_neg/Fire 5.jpg","high_arousal_negative","→","left-mid","→","1"
"","","","","","html-keyboard-response","202","2.1.0","202107","","null","
            <div class=""trial-screen"">
                <div class=""fixation-modern"">+</div>
            </div>
        ","null","","","","","",""
"","","","","","html-keyboard-response","203","2.1.0","203077","","969","
        <div class=""progress-bar"" style=""width: 77.5%;""></div>
        <div class=""trial-counter"">Trial 93 / 120</div>
        <div class=""trial-screen"">
            <div class=""center-image-container"">
                <img src=""images/high_pos/Dog 18.jpg"" class=""center-image"">
            </div>
            <div class=""arrow-subtle"" style=""left: 92%; top: 75%; transform: translate(-50%, -50%);"">
                →
            </div>
        </div>
    ","ArrowRight","images/high_pos/Dog 18.jpg","high_arousal_positive","→","right-bottom-upper","→","1"
"","","","","","html-keyboard-response","204","2.1.0","203887","","null","
            <div class=""trial-screen"">
                <div class=""fixation-modern"">+</div>
            </div>
        ","null","","","","","",""
"","","","","","html-keyboard-response","205","2.1.0","204703","","816","
        <div class=""progress-bar"" style=""width: 36.666666666666664%;""></div>
        <div class=""trial-counter"">Trial 44 / 120</div>
        <div class=""trial-screen"">
            <div class=""center-image-container"">
                <img src=""images/high_neg/Fire 5.jpg"" class=""center-image"">
            </div>
            <div class=""arrow-subtle"" style=""left: 8%; top: 35%; transform: translate(-50%, -50%);"">
                ←
            </div>
        </div>
    ","ArrowLeft","images/high_neg/Fire 5.jpg","high_arousal_negative","←","left-upper-mid","←","1"
"","","","","","html-keyboard-response","206","2.1.0","205508","","null","
            <div class=""trial-screen"">
                <div class=""fixation-modern"">+</div>
            </div>
        ","null","","","","","",""
"","","","","","html-keyboard-response","207","2.1.0","206419","","910","
        <div class=""progress-bar"" style=""width: 41.66666666666667%;""></div>
        <div class=""trial-counter"">Trial 50 / 120</div>
        <div class=""trial-screen"">
            <div class=""center-image-container"">
                <img src=""images/high_neg/Explosion 5.jpg"" class=""center-image"">
            </div>
            <div class=""arrow-subtle"" style=""left: 8%; top: 35%; transform: translate(-50%, -50%);"">
                ↑
            </div>
        </div>
    ","ArrowUp","images/high_neg/Explosion 5.jpg","high_arousal_negative","↑","left-upper-mid","↑","1"
"","","","","","html-keyboard-response","208","2.1.0","207222","","null","
            <div class=""trial-screen"">
                <div class=""fixation-modern"">+</div>
            </div>
        ","null","","","","","",""
"","","","","","html-keyboard-response","209","2.1.0","207966","","743","
        <div class=""progress-bar"" style=""width: 65.83333333333333%;""></div>
        <div class=""trial-counter"">Trial 79 / 120</div>
        <div class=""trial-screen"">
            <div class=""center-image-container"">
                <img src=""images/high_neg/Miserable pose 3.jpg"" class=""center-image"">
            </div>
            <div class=""arrow-subtle"" style=""left: 92%; top: 65%; transform: translate(-50%, -50%);"">
                →
            </div>
        </div>
    ","ArrowRight","images/high_neg/Miserable pose 3.jpg","high_arousal_negative","→","right-lower","→","1"
"","","","","","html-keyboard-response","210","2.1.0","208772","","null","
            <div class=""trial-screen"">
                <div class=""fixation-modern"">+</div>
            </div>
        ","null","","","","","",""
"","","","","","html-keyboard-response","211","2.1.0","209993","","1219","
        <div class=""progress-bar"" style=""width: 44.166666666666664%;""></div>
        <div class=""trial-counter"">Trial 53 / 120</div>
        <div class=""trial-screen"">
            <div class=""center-image-container"">
                <img src=""images/high_neg/Dummy 1.jpg"" class=""center-image"">
            </div>
            <div class=""arrow-subtle"" style=""left: 92%; top: 25%; transform: translate(-50%, -50%);"">
                →
            </div>
        </div>
    ","ArrowRight","images/high_neg/Dummy 1.jpg","high_arousal_negative","→","right-upper","→","1"
"","","","","","html-keyboard-response","212","2.1.0","210806","","null","
            <div class=""trial-screen"">
                <div class=""fixation-modern"">+</div>
            </div>
        ","null","","","","","",""
"","","","","","html-keyboard-response","213","2.1.0","211665","","858","
        <div class=""progress-bar"" style=""width: 92.5%;""></div>
        <div class=""trial-counter"">Trial 111 / 120</div>
        <div class=""trial-screen"">
            <div class=""center-image-container"">
                <img src=""images/high_pos/Fireworks 6.jpg"" class=""center-image"">
            </div>
            <div class=""arrow-subtle"" style=""left: 92%; top: 15%; transform: translate(-50%, -50%);"">
                →
            </div>
        </div>
    ","ArrowRight","images/high_pos/Fireworks 6.jpg","high_arousal_positive","→","right-top","→","1"
"","","","","","html-keyboard-response","214","2.1.0","212474","","null","
            <div class=""trial-screen"">
                <div class=""fixation-modern"">+</div>
            </div>
        ","null","","","","","",""
"","","","","","html-keyboard-response","215","2.1.0","215414","","2939","
        <div class=""progress-bar"" style=""width: 58.333333333333336%;""></div>
        <div class=""trial-counter"">Trial 70 / 120</div>
        <div class=""trial-screen"">
            <div class=""center-image-container"">
                <img src=""images/high_neg/Fire 9.jpg"" class=""center-image"">
            </div>
            <div class=""arrow-subtle"" style=""left: 8%; top: 45%; transform: translate(-50%, -50%);"">
                ↓
            </div>
        </div>
    ","ArrowDown","images/high_neg/Fire 9.jpg","high_arousal_negative","↓","left-mid","↓","1"
"","","","","","html-keyboard-response","216","2.1.0","216220","","null","
            <div class=""trial-screen"">
                <div class=""fixation-modern"">+</div>
            </div>
        ","null","","","","","",""
"","","","","","html-keyboard-response","217","2.1.0","217134","","913","
        <div class=""progress-bar"" style=""width: 86.66666666666667%;""></div>
        <div class=""trial-counter"">Trial 104 / 120</div>
        <div class=""trial-screen"">
            <div class=""center-image-container"">
                <img src=""images/high_pos/Beach 1.jpg"" class=""center-image"">
            </div>
            <div class=""arrow-subtle"" style=""left: 92%; top: 35%; transform: translate(-50%, -50%);"">
                ←
            </div>
        </div>
    ","ArrowLeft","images/high_pos/Beach 1.jpg","high_arousal_positive","←","right-upper-mid","←","1"
"","","","","","html-keyboard-response","218","2.1.0","217940","","null","
            <div class=""trial-screen"">
                <div class=""fixation-modern"">+</div>
            </div>
        ","null","","","","","",""
"","","","","","html-keyboard-response","219","2.1.0","218730","","790","
        <div class=""progress-bar"" style=""width: 91.66666666666666%;""></div>
        <div class=""trial-counter"">Trial 110 / 120</div>
        <div class=""trial-screen"">
            <div class=""center-image-container"">
                <img src=""images/high_pos/Cat 5.jpg"" class=""center-image"">
            </div>
            <div class=""arrow-subtle"" style=""left: 8%; top: 75%; transform: translate(-50%, -50%);"">
                ↓
            </div>
        </div>
    ","ArrowDown","images/high_pos/Cat 5.jpg","high_arousal_positive","↓","left-bottom-upper","↓","1"
"","","","","","html-keyboard-response","220","2.1.0","219532","","null","
            <div class=""trial-screen"">
                <div class=""fixation-modern"">+</div>
            </div>
        ","null","","","","","",""
"","","","","","html-keyboard-response","221","2.1.0","220665","","1133","
        <div class=""progress-bar"" style=""width: 34.166666666666664%;""></div>
        <div class=""trial-counter"">Trial 41 / 120</div>
        <div class=""trial-screen"">
            <div class=""center-image-container"">
                <img src=""images/high_neg/Injury 4.jpg"" class=""center-image"">
            </div>
            <div class=""arrow-subtle"" style=""left: 92%; top: 65%; transform: translate(-50%, -50%);"">
                →
            </div>
        </div>
    ","ArrowRight","images/high_neg/Injury 4.jpg","high_arousal_negative","→","right-lower","→","1"
"","","","","","html-keyboard-response","222","2.1.0","221545","","null","
            <div class=""trial-screen"">
                <div class=""fixation-modern"">+</div>
            </div>
        ","null","","","","","",""
"","","","","","html-keyboard-response","223","2.1.0","222472","","926","
        <div class=""progress-bar"" style=""width: 88.33333333333333%;""></div>
        <div class=""trial-counter"">Trial 106 / 120</div>
        <div class=""trial-screen"">
            <div class=""center-image-container"">
                <img src=""images/high_pos/Dog 6.jpg"" class=""center-image"">
            </div>
            <div class=""arrow-subtle"" style=""left: 92%; top: 35%; transform: translate(-50%, -50%);"">
                ↑
            </div>
        </div>
    ","ArrowUp","images/high_pos/Dog 6.jpg","high_arousal_positive","↑","right-upper-mid","↑","1"
"","","","","","html-keyboard-response","224","2.1.0","223276","","null","
            <div class=""trial-screen"">
                <div class=""fixation-modern"">+</div>
            </div>
        ","null","","","","","",""
"","","","","","html-keyboard-response","225","2.1.0","224145","","868","
        <div class=""progress-bar"" style=""width: 51.66666666666667%;""></div>
        <div class=""trial-counter"">Trial 62 / 120</div>
        <div class=""trial-screen"">
            <div class=""center-image-container"">
                <img src=""images/high_neg/Fire 9.jpg"" class=""center-image"">
            </div>
            <div class=""arrow-subtle"" style=""left: 92%; top: 45%; transform: translate(-50%, -50%);"">
                ↑
            </div>
        </div>
    ","ArrowUp","images/high_neg/Fire 9.jpg","high_arousal_negative","↑","right-mid","↑","1"
"","","","","","html-keyboard-response","226","2.1.0","224950","","null","
            <div class=""trial-screen"">
                <div class=""fixation-modern"">+</div>
            </div>
        ","null","","","","","",""
"","","","","","html-keyboard-response","227","2.1.0","226378","","1427","
        <div class=""progress-bar"" style=""width: 45%;""></div>
        <div class=""trial-counter"">Trial 54 / 120</div>
        <div class=""trial-screen"">
            <div class=""center-image-container"">
                <img src=""images/high_neg/Fire 9.jpg"" class=""center-image"">
            </div>
            <div class=""arrow-subtle"" style=""left: 92%; top: 35%; transform: translate(-50%, -50%);"">
                ↑
            </div>
        </div>
    ","ArrowUp","images/high_neg/Fire 9.jpg","high_arousal_negative","↑","right-upper-mid","↑","1"
"","","","","","html-keyboard-response","228","2.1.0","227183","","null","
            <div class=""trial-screen"">
                <div class=""fixation-modern"">+</div>
            </div>
        ","null","","","","","",""
"","","","","","html-keyboard-response","229","2.1.0","228160","","975","
        <div class=""progress-bar"" style=""width: 95.83333333333334%;""></div>
        <div class=""trial-counter"">Trial 115 / 120</div>
